Time,Force.Fx1,Force.Fy1,Force.Fz1,Moment.Mx1,Moment.My1,Moment.Mz1,Force.Fx2,Force.Fy2,Force.Fz2,Moment.Mx2,Moment.My2,Moment.Mz2,Force.Fx3,Force.Fy3,Force.Fz3,Moment.Mx3,Moment.My3,Moment.Mz3,Force.Fx4,Force.Fy4,Force.Fz4,Moment.Mx4,Moment.My4,Moment.Mz4,Raw.Pin 9,Raw.Pin 10,Raw.Pin 11,Raw.Pin 12,Raw.Pin 13,Raw.Pin 14,Sensor 1.EMG1,Sensor 10.EMG10,Sensor 11.EMG11,Sensor 12.EMG12,Sensor 13.EMG13,Sensor 14.EMG14,Sensor 15.EMG15,Sensor 16.EMG16,Sensor 2.EMG2,Sensor 3.EMG3,Sensor 4.EMG4,Sensor 5.EMG5,Sensor 6.EMG6,Sensor 7.EMG7,Sensor 8.EMG8,Sensor 9.EMG9,Sensor 1.ACCX1,Sensor 1.ACCY1,Sensor 1.ACCZ1,Sensor 10.ACCX10,Sensor 10.ACCY10,Sensor 10.ACCZ10,Sensor 11.ACCX11,Sensor 11.ACCY11,Sensor 11.ACCZ11,Sensor 12.ACCX12,Sensor 12.ACCY12,Sensor 12.ACCZ12,Sensor 13.ACCX13,Sensor 13.ACCY13,Sensor 13.ACCZ13,Sensor 14.ACCX14,Sensor 14.ACCY14,Sensor 14.ACCZ14,Sensor 15.ACCX15,Sensor 15.ACCY15,Sensor 15.ACCZ15,Sensor 16.ACCX16,Sensor 16.ACCY16,Sensor 16.ACCZ16,Sensor 2.ACCX2,Sensor 2.ACCY2,Sensor 2.ACCZ2,Sensor 3.ACCX3,Sensor 3.ACCY3,Sensor 3.ACCZ3,Sensor 4.ACCX4,Sensor 4.ACCY4,Sensor 4.ACCZ4,Sensor 5.ACCX5,Sensor 5.ACCY5,Sensor 5.ACCZ5,Sensor 6.ACCX6,Sensor 6.ACCY6,Sensor 6.ACCZ6,Sensor 7.ACCX7,Sensor 7.ACCY7,Sensor 7.ACCZ7,Sensor 8.ACCX8,Sensor 8.ACCY8,Sensor 8.ACCZ8,Sensor 9.ACCX9,Sensor 9.ACCY9,Sensor 9.ACCZ9,Sensor 1.IM EMG1,Sensor 10.IM EMG10,Sensor 11.IM EMG11,Sensor 12.IM EMG12,Sensor 13.IM EMG13,Sensor 14.IM EMG14,Sensor 15.IM EMG15,Sensor 16.IM EMG16,Sensor 2.IM EMG2,Sensor 3.IM EMG3,Sensor 4.IM EMG4,Sensor 5.IM EMG5,Sensor 6.IM EMG6,Sensor 7.IM EMG7,Sensor 8.IM EMG8,Sensor 9.IM EMG9,Sensor 1 Acc.ACCX1,Sensor 1 Acc.ACCY1,Sensor 1 Acc.ACCZ1,Sensor 1 Gyro.GYROX1,Sensor 1 Gyro.GYROY1,Sensor 1 Gyro.GYROZ1,Sensor 1 Mag.MAGX1,Sensor 1 Mag.MAGY1,Sensor 1 Mag.MAGZ1,Sensor 10 Acc.ACCX10,Sensor 10 Acc.ACCY10,Sensor 10 Acc.ACCZ10,Sensor 10 Gyro.GYROX10,Sensor 10 Gyro.GYROY10,Sensor 10 Gyro.GYROZ10,Sensor 10 Mag.MAGX10,Sensor 10 Mag.MAGY10,Sensor 10 Mag.MAGZ10,Sensor 11 Acc.ACCX11,Sensor 11 Acc.ACCY11,Sensor 11 Acc.ACCZ11,Sensor 11 Gyro.GYROX11,Sensor 11 Gyro.GYROY11,Sensor 11 Gyro.GYROZ11,Sensor 11 Mag.MAGX11,Sensor 11 Mag.MAGY11,Sensor 11 Mag.MAGZ11,Sensor 12 Acc.ACCX12,Sensor 12 Acc.ACCY12,Sensor 12 Acc.ACCZ12,Sensor 12 Gyro.GYROX12,Sensor 12 Gyro.GYROY12,Sensor 12 Gyro.GYROZ12,Sensor 12 Mag.MAGX12,Sensor 12 Mag.MAGY12,Sensor 12 Mag.MAGZ12,Sensor 13 Acc.ACCX13,Sensor 13 Acc.ACCY13,Sensor 13 Acc.ACCZ13,Sensor 13 Gyro.GYROX13,Sensor 13 Gyro.GYROY13,Sensor 13 Gyro.GYROZ13,Sensor 13 Mag.MAGX13,Sensor 13 Mag.MAGY13,Sensor 13 Mag.MAGZ13,Sensor 14 Acc.ACCX14,Sensor 14 Acc.ACCY14,Sensor 14 Acc.ACCZ14,Sensor 14 Gyro.GYROX14,Sensor 14 Gyro.GYROY14,Sensor 14 Gyro.GYROZ14,Sensor 14 Mag.MAGX14,Sensor 14 Mag.MAGY14,Sensor 14 Mag.MAGZ14,Sensor 15 Acc.ACCX15,Sensor 15 Acc.ACCY15,Sensor 15 Acc.ACCZ15,Sensor 15 Gyro.GYROX15,Sensor 15 Gyro.GYROY15,Sensor 15 Gyro.GYROZ15,Sensor 15 Mag.MAGX15,Sensor 15 Mag.MAGY15,Sensor 15 Mag.MAGZ15,Sensor 16 Acc.ACCX16,Sensor 16 Acc.ACCY16,Sensor 16 Acc.ACCZ16,Sensor 16 Gyro.GYROX16,Sensor 16 Gyro.GYROY16,Sensor 16 Gyro.GYROZ16,Sensor 16 Mag.MAGX16,Sensor 16 Mag.MAGY16,Sensor 16 Mag.MAGZ16,Sensor 2 Acc.ACCX2,Sensor 2 Acc.ACCY2,Sensor 2 Acc.ACCZ2,Sensor 2 Gyro.GYROX2,Sensor 2 Gyro.GYROY2,Sensor 2 Gyro.GYROZ2,Sensor 2 Mag.MAGX2,Sensor 2 Mag.MAGY2,Sensor 2 Mag.MAGZ2,Sensor 3 Acc.ACCX3,Sensor 3 Acc.ACCY3,Sensor 3 Acc.ACCZ3,Sensor 3 Gyro.GYROX3,Sensor 3 Gyro.GYROY3,Sensor 3 Gyro.GYROZ3,Sensor 3 Mag.MAGX3,Sensor 3 Mag.MAGY3,Sensor 3 Mag.MAGZ3,Sensor 4 Acc.ACCX4,Sensor 4 Acc.ACCY4,Sensor 4 Acc.ACCZ4,Sensor 4 Gyro.GYROX4,Sensor 4 Gyro.GYROY4,Sensor 4 Gyro.GYROZ4,Sensor 4 Mag.MAGX4,Sensor 4 Mag.MAGY4,Sensor 4 Mag.MAGZ4,Sensor 5 Acc.ACCX5,Sensor 5 Acc.ACCY5,Sensor 5 Acc.ACCZ5,Sensor 5 Gyro.GYROX5,Sensor 5 Gyro.GYROY5,Sensor 5 Gyro.GYROZ5,Sensor 5 Mag.MAGX5,Sensor 5 Mag.MAGY5,Sensor 5 Mag.MAGZ5,Sensor 6 Acc.ACCX6,Sensor 6 Acc.ACCY6,Sensor 6 Acc.ACCZ6,Sensor 6 Gyro.GYROX6,Sensor 6 Gyro.GYROY6,Sensor 6 Gyro.GYROZ6,Sensor 6 Mag.MAGX6,Sensor 6 Mag.MAGY6,Sensor 6 Mag.MAGZ6,Sensor 7 Acc.ACCX7,Sensor 7 Acc.ACCY7,Sensor 7 Acc.ACCZ7,Sensor 7 Gyro.GYROX7,Sensor 7 Gyro.GYROY7,Sensor 7 Gyro.GYROZ7,Sensor 7 Mag.MAGX7,Sensor 7 Mag.MAGY7,Sensor 7 Mag.MAGZ7,Sensor 8 Acc.ACCX8,Sensor 8 Acc.ACCY8,Sensor 8 Acc.ACCZ8,Sensor 8 Gyro.GYROX8,Sensor 8 Gyro.GYROY8,Sensor 8 Gyro.GYROZ8,Sensor 8 Mag.MAGX8,Sensor 8 Mag.MAGY8,Sensor 8 Mag.MAGZ8,Sensor 9 Acc.ACCX9,Sensor 9 Acc.ACCY9,Sensor 9 Acc.ACCZ9,Sensor 9 Gyro.GYROX9,Sensor 9 Gyro.GYROY9,Sensor 9 Gyro.GYROZ9,Sensor 9 Mag.MAGX9,Sensor 9 Mag.MAGY9,Sensor 9 Mag.MAGZ9
0.000,0.0,0.0,0.0,0.0,0.0,0.0,0.0,0.0,0.0,0.0,0.0,0.0,11.420291900634766,-0.16235770285129547,-193.5894775390625,9472.5947265625,24810.1796875,-596.283935546875,0.0,0.0,0.0,0.0,0.0,0.0,0.00457763671875,0.00518798828125,0.00732421875,0.00213623046875,0.00335693359375,0.00457763671875,0.0,0.0,0.0,0.0,0.0,0.0,0.0,0.0,0.0,0.0,0.0,0.0,0.0,0.0,0.0,0.0,0.0,0.0,0.0,0.0,0.0,0.0,0.0,0.0,0.0,0.0,0.0,0.0,0.0,0.0,0.0,0.0,0.0,0.0,0.0,0.0,0.0,0.0,0.0,0.0,0.0,0.0,0.0,0.0,0.0,0.0,0.0,0.0,0.0,0.0,0.0,0.0,0.0,0.0,0.0,0.0,0.0,0.0,0.0,0.0,0.0,0.0,0.0,0.0,-0.00030100776348263025,1.7639471479924396e-05,9.944726116373204e-06,-2.3912380129331723e-05,0.0,0.0,0.0,0.0,-0.0003492251271381974,0.00019606089335866272,0.00029898426146246493,-6.569398465217091e-06,-0.00022233289200812578,-1.2707308997050859e-05,0.0007935166941024363,-0.0007298558484762907,-0.16918615996837616,0.14355534315109253,9.31928539276123,-0.3155169188976288,0.10894697159528732,0.02708221785724163,0.0,0.0,0.0,0.05956893041729927,-0.1474047601222992,9.28111457824707,0.27909940481185913,0.0396997295320034,0.020016025751829147,0.0,0.0,0.0,0.3615390956401825,-7.989192962646484,9.486734390258789,1.276865005493164,-0.5529977679252625,0.013507924973964691,0.0,0.0,0.0,-0.3189566731452942,-9.461897850036621,4.177370071411133,1.0699741840362549,-0.5110300183296204,0.1763710230588913,0.0,0.0,0.0,0.0,0.0,0.0,0.0,0.0,0.0,0.0,0.0,0.0,0.0,0.0,0.0,0.0,0.0,0.0,0.0,0.0,0.0,0.0,0.0,0.0,0.0,0.0,0.0,0.0,0.0,0.0,0.0,0.0,0.0,0.0,0.0,0.0,0.0,0.0,0.0,-0.20927493274211884,0.08385340869426727,9.476802825927734,-0.18938109278678894,-0.00492517463862896,-0.033872462809085846,0.0,0.0,0.0,0.20848488807678223,-0.060931190848350525,9.509575843811035,0.07037951797246933,0.27843114733695984,-0.006436418741941452,0.0,0.0,0.0,0.032100021839141846,-0.14894025027751923,9.495404243469238,-0.177725687623024,0.10421348363161087,0.04919713735580444,0.0,0.0,0.0,6.733334541320801,-2.1678078174591064,10.629399299621582,-1.5814449787139893,-1.3841036558151245,0.7005730867385864,0.0,0.0,0.0,-0.20599810779094696,-0.029270397499203682,9.514287948608398,0.200023353099823,-0.08258409053087234,0.07076653093099594,0.0,0.0,0.0,-10.875962257385254,-0.48098647594451904,9.812864303588867,-1.1518157720565796,2.3336946964263916,0.2000996619462967,0.0,0.0,0.0,0.023865552619099617,-0.20712663233280182,9.125547409057617,0.019581573083996773,-0.06960911303758621,0.049035001546144485,0.0,0.0,0.0,-0.009996105916798115,0.1373119056224823,9.522716522216797,0.04815441742539406,0.05595693737268448,-0.000395953597035259,0.0,0.0,0.0
0.001,0.0,0.0,0.0,0.0,0.0,0.0,0.0,0.0,0.0,0.0,0.0,0.0,11.267704010009766,-0.009769812226295471,-192.9791259765625,9381.0419921875,24688.109375,-550.507568359375,0.0,0.0,0.0,0.0,0.0,0.0,0.0048828125,0.00518798828125,0.00701904296875,0.00213623046875,0.00335693359375,0.0042724609375,0.0,0.0,0.0,0.0,0.0,0.0,0.0,0.0,0.0,0.0,0.0,0.0,0.0,0.0,0.0,0.0,0.0,0.0,0.0,0.0,0.0,0.0,0.0,0.0,0.0,0.0,0.0,0.0,0.0,0.0,0.0,0.0,0.0,0.0,0.0,0.0,0.0,0.0,0.0,0.0,0.0,0.0,0.0,0.0,0.0,0.0,0.0,0.0,0.0,0.0,0.0,0.0,0.0,0.0,0.0,0.0,0.0,0.0,0.0,0.0,0.0,0.0,0.0,0.0,-0.00030843453714624047,1.8621447452460416e-05,-3.733813173312228e-06,-1.3457472959998995e-05,0.0,0.0,0.0,0.0,-0.0002806902921292931,0.00012154015712440014,0.00018006375466939062,-1.8542232282925397e-07,-0.00014869248843751848,-1.4636374544352293e-05,0.0006989224930293858,-0.0006718675722368062,-0.16750942170619965,0.1444501429796219,9.320301055908203,-0.315868079662323,0.10888426750898361,0.027229130268096924,0.0,0.0,0.0,0.05841618776321411,-0.14823508262634277,9.279864311218262,0.27922481298446655,0.039830513298511505,0.019994525238871574,0.0,0.0,0.0,0.3374843895435333,-7.996222019195557,9.496383666992188,1.2692792415618896,-0.5491189360618591,0.012966856360435486,0.0,0.0,0.0,-0.32646965980529785,-9.468233108520508,4.141231536865234,1.063832402229309,-0.5128843188285828,0.17419420182704926,0.0,0.0,0.0,0.0,0.0,0.0,0.0,0.0,0.0,0.0,0.0,0.0,0.0,0.0,0.0,0.0,0.0,0.0,0.0,0.0,0.0,0.0,0.0,0.0,0.0,0.0,0.0,0.0,0.0,0.0,0.0,0.0,0.0,0.0,0.0,0.0,0.0,0.0,0.0,-0.207316055893898,0.08498196303844452,9.479140281677246,-0.18937571346759796,-0.0049878801219165325,-0.03365209698677063,0.0,0.0,0.0,0.21053241193294525,-0.058077532798051834,9.511364936828613,0.07028993219137192,0.27849385142326355,-0.006441793870180845,0.0,0.0,0.0,0.03332531824707985,-0.14761821925640106,9.495404243469238,-0.177725687623024,0.10400386899709702,0.04911830648779869,0.0,0.0,0.0,6.834905624389648,-2.221277952194214,10.628633499145508,-1.5863415002822876,-1.3494536876678467,0.6840113997459412,0.0,0.0,0.0,-0.2051033079624176,-0.02657794952392578,9.515633583068848,0.20001797378063202,-0.08244255185127258,0.07091882079839706,0.0,0.0,0.0,-10.877219200134277,-0.4386327862739563,9.807883262634277,-1.1391454935073853,2.268275260925293,0.2303636223077774,0.0,0.0,0.0,0.023422202095389366,-0.20769090950489044,9.125426292419434,0.019723109900951385,-0.06944607943296432,0.04924461990594864,0.0,0.0,0.0,-0.011414887383580208,0.13761822879314423,9.523941993713379,0.04787671938538551,0.05601426959037781,-0.00033324811374768615,0.0,0.0,0.0
0.001,0.0,0.0,0.0,0.0,0.0,0.0,0.0,0.0,0.0,0.0,0.0,0.0,11.115116119384766,0.14281807839870453,-192.3687744140625,9289.4892578125,24566.0390625,-504.7310485839844,0.0,0.0,0.0,0.0,0.0,0.0,0.0048828125,0.00518798828125,0.00701904296875,0.00213623046875,0.00335693359375,0.0042724609375,0.0,0.0,0.0,0.0,0.0,0.0,0.0,0.0,0.0,0.0,0.0,0.0,0.0,0.0,0.0,0.0,0.0,0.0,0.0,0.0,0.0,0.0,0.0,0.0,0.0,0.0,0.0,0.0,0.0,0.0,0.0,0.0,0.0,0.0,0.0,0.0,0.0,0.0,0.0,0.0,0.0,0.0,0.0,0.0,0.0,0.0,0.0,0.0,0.0,0.0,0.0,0.0,0.0,0.0,0.0,0.0,0.0,0.0,0.0,0.0,0.0,0.0,0.0,0.0,-0.00030746625270694494,1.8968710719491355e-05,-2.0460582163650542e-05,-6.579093678737991e-07,0.0,0.0,0.0,0.0,-0.00021139989257790148,5.20707544637844e-05,6.541635229950771e-05,-1.1093292187069892e-06,-6.853247032267973e-05,-1.597707341716159e-05,0.0005907906452193856,-0.0005949652986600995,-0.16583268344402313,0.14534492790699005,9.321316719055176,-0.3162192404270172,0.1088215559720993,0.027376042678952217,0.0,0.0,0.0,0.05726344883441925,-0.14906540513038635,9.27861499786377,0.279350221157074,0.039961300790309906,0.019973024725914,0.0,0.0,0.0,0.31342965364456177,-8.003251075744629,9.506032943725586,1.2616934776306152,-0.5452401638031006,0.012425788678228855,0.0,0.0,0.0,-0.3339826464653015,-9.474569320678711,4.105093479156494,1.0576907396316528,-0.5147386193275452,0.17201738059520721,0.0,0.0,0.0,0.0,0.0,0.0,0.0,0.0,0.0,0.0,0.0,0.0,0.0,0.0,0.0,0.0,0.0,0.0,0.0,0.0,0.0,0.0,0.0,0.0,0.0,0.0,0.0,0.0,0.0,0.0,0.0,0.0,0.0,0.0,0.0,0.0,0.0,0.0,0.0,-0.20535717904567719,0.08611051738262177,9.481477737426758,-0.18937033414840698,-0.005050585605204105,-0.033431727439165115,0.0,0.0,0.0,0.21257995069026947,-0.05522387474775314,9.513154983520508,0.0702003538608551,0.27855655550956726,-0.0064471689984202385,0.0,0.0,0.0,0.03455061465501785,-0.1462961733341217,9.495404243469238,-0.177725687623024,0.10379425436258316,0.04903947189450264,0.0,0.0,0.0,6.936477184295654,-2.2747480869293213,10.627867698669434,-1.591238021850586,-1.3148037195205688,0.6674497127532959,0.0,0.0,0.0,-0.20420852303504944,-0.02388549968600273,9.516980171203613,0.20001259446144104,-0.08230101317167282,0.07107111066579819,0.0,0.0,0.0,-10.8784761428833,-0.39627909660339355,9.802901268005371,-1.126475214958191,2.2028560638427734,0.2606275975704193,0.0,0.0,0.0,0.022978853434324265,-0.20825518667697906,9.125306129455566,0.019864646717905998,-0.06928303837776184,0.04945423826575279,0.0,0.0,0.0,-0.012833667919039726,0.13792455196380615,9.525166511535645,0.04759902134537697,0.05607159808278084,-0.00027054265956394374,0.0,0.0,0.0
0.002,0.0,0.0,0.0,0.0,0.0,0.0,0.0,0.0,0.0,0.0,0.0,0.0,11.267704010009766,-0.009769812226295471,-192.9791259765625,9289.4892578125,24566.0390625,-458.9546813964844,0.0,0.0,0.0,0.0,0.0,0.0,0.00457763671875,0.0048828125,0.00732421875,0.0018310546875,0.0030517578125,0.0048828125,0.0,0.0,0.0,0.0,0.0,0.0,0.0,0.0,0.0,0.0,0.0,0.0,0.0,0.0,0.0,0.0,0.0,0.0,0.0,0.0,0.0,0.0,0.0,0.0,0.0,0.0,0.0,0.0,0.0,0.0,0.0,0.0,0.0,0.0,0.0,0.0,0.0,0.0,0.0,0.0,0.0,0.0,0.0,0.0,0.0,0.0,0.0,0.0,0.0,0.0,0.0,0.0,0.0,0.0,0.0,0.0,0.0,0.0,0.0,0.0,0.0,0.0,0.0,0.0,-0.0002957618853542954,1.8785181964631192e-05,-3.4914839488919824e-05,8.805673132883385e-06,0.0,0.0,0.0,0.0,-0.00014499021926894784,-1.0244719305774197e-05,-3.5107375879306346e-05,-2.7535738809092436e-06,9.749004675541073e-06,-1.6602039977442473e-05,0.0004785790806636214,-0.0005051038460806012,-0.1641559600830078,0.14623971283435822,9.322332382202148,-0.31657037138938904,0.1087588518857956,0.02752295322716236,0.0,0.0,0.0,0.05611070990562439,-0.14989571273326874,9.277365684509277,0.2794756293296814,0.04009208455681801,0.01995152235031128,0.0,0.0,0.0,0.2893749475479126,-8.01028060913086,9.515682220458984,1.2541078329086304,-0.5413613319396973,0.01188472006469965,0.0,0.0,0.0,-0.3414956331253052,-9.480905532836914,4.068954944610596,1.051548957824707,-0.5165929794311523,0.16984055936336517,0.0,0.0,0.0,0.0,0.0,0.0,0.0,0.0,0.0,0.0,0.0,0.0,0.0,0.0,0.0,0.0,0.0,0.0,0.0,0.0,0.0,0.0,0.0,0.0,0.0,0.0,0.0,0.0,0.0,0.0,0.0,0.0,0.0,0.0,0.0,0.0,0.0,0.0,0.0,-0.20339831709861755,0.08723907172679901,9.483816146850586,-0.1893649697303772,-0.005113291088491678,-0.0332113616168499,0.0,0.0,0.0,0.2146274745464325,-0.052370212972164154,9.514944076538086,0.07011076807975769,0.27861925959587097,-0.006452544592320919,0.0,0.0,0.0,0.035775911062955856,-0.14497414231300354,9.495404243469238,-0.177725687623024,0.10358463227748871,0.04896064102649689,0.0,0.0,0.0,7.038048267364502,-2.3282182216644287,10.627100944519043,-1.5961344242095947,-1.280153751373291,0.6508880853652954,0.0,0.0,0.0,-0.20331373810768127,-0.02119305171072483,9.518325805664062,0.20000723004341125,-0.08215948194265366,0.07122339308261871,0.0,0.0,0.0,-10.87973403930664,-0.3539254367351532,9.797919273376465,-1.1138049364089966,2.137436628341675,0.2908915579319,0.0,0.0,0.0,0.022535502910614014,-0.2088194638490677,9.125185012817383,0.02000618353486061,-0.06912000477313995,0.04966385290026665,0.0,0.0,0.0,-0.014252448454499245,0.13823087513446808,9.526391983032227,0.04732132330536842,0.05612893030047417,-0.00020783717627637088,0.0,0.0,0.0
0.002,0.0,0.0,0.0,0.0,0.0,0.0,0.0,0.0,0.0,0.0,0.0,0.0,11.420291900634766,-0.16235770285129547,-193.5894775390625,9289.4892578125,24566.0390625,-413.17828369140625,0.0,0.0,0.0,0.0,0.0,0.0,0.00457763671875,0.0048828125,0.00732421875,0.0018310546875,0.0030517578125,0.0048828125,0.0,0.0,0.0,0.0,0.0,0.0,0.0,0.0,0.0,0.0,0.0,0.0,0.0,0.0,0.0,0.0,0.0,0.0,0.0,0.0,0.0,0.0,0.0,0.0,0.0,0.0,0.0,0.0,0.0,0.0,0.0,0.0,0.0,0.0,0.0,0.0,0.0,0.0,0.0,0.0,0.0,0.0,0.0,0.0,0.0,0.0,0.0,0.0,0.0,0.0,0.0,0.0,0.0,0.0,0.0,0.0,0.0,0.0,0.0,0.0,0.0,0.0,0.0,0.0,-0.00026483539841137826,1.790150417946279e-05,-4.527328928816132e-05,1.6284662706311792e-05,0.0,0.0,0.0,0.0,-5.13479026267305e-05,-9.723848779685795e-05,-0.00016302538278978318,2.322219643247081e-06,0.00010840683535207063,-1.717246777843684e-05,0.0003119536559097469,-0.00036846843431703746,-0.1624792218208313,0.14713449776172638,9.323348045349121,-0.31692153215408325,0.10869614779949188,0.027669865638017654,0.0,0.0,0.0,0.05495797097682953,-0.15072603523731232,9.276116371154785,0.2796010375022888,0.04022287204861641,0.019930021837353706,0.0,0.0,0.0,0.26532021164894104,-8.01731014251709,9.525331497192383,1.246522068977356,-0.537482500076294,0.011343652382493019,0.0,0.0,0.0,-0.34900861978530884,-9.487241744995117,4.0328168869018555,1.0454072952270508,-0.5184472799301147,0.16766373813152313,0.0,0.0,0.0,0.0,0.0,0.0,0.0,0.0,0.0,0.0,0.0,0.0,0.0,0.0,0.0,0.0,0.0,0.0,0.0,0.0,0.0,0.0,0.0,0.0,0.0,0.0,0.0,0.0,0.0,0.0,0.0,0.0,0.0,0.0,0.0,0.0,0.0,0.0,0.0,-0.20143944025039673,0.08836762607097626,9.486153602600098,-0.18935959041118622,-0.005175996571779251,-0.032990992069244385,0.0,0.0,0.0,0.21667499840259552,-0.04951655492186546,9.51673412322998,0.07002118974924088,0.2786819636821747,-0.006457919720560312,0.0,0.0,0.0,0.03700120747089386,-0.14365209639072418,9.495404243469238,-0.177725687623024,0.10337501764297485,0.048881810158491135,0.0,0.0,0.0,7.139619827270508,-2.381688356399536,10.626335144042969,-1.601030945777893,-1.2455037832260132,0.6343263983726501,0.0,0.0,0.0,-0.2024189531803131,-0.01850060373544693,9.519672393798828,0.20000185072422028,-0.0820179432630539,0.07137568295001984,0.0,0.0,0.0,-10.880990982055664,-0.31157174706459045,9.792937278747559,-1.1011346578598022,2.0720174312591553,0.32115551829338074,0.0,0.0,0.0,0.022092154249548912,-0.2093837410211563,9.1250638961792,0.020147720351815224,-0.06895696371793747,0.0498734712600708,0.0,0.0,0.0,-0.015671228989958763,0.13853719830513,9.527617454528809,0.04704362526535988,0.0561862587928772,-0.00014513169298879802,0.0,0.0,0.0
0.003,0.0,0.0,0.0,0.0,0.0,0.0,0.0,0.0,0.0,0.0,0.0,0.0,11.267704010009766,-0.16235770285129547,-194.1998291015625,9472.5947265625,24566.0390625,-504.7310485839844,0.0,0.0,0.0,0.0,0.0,0.0,0.00457763671875,0.0054931640625,0.00732421875,0.00244140625,0.00274658203125,0.00457763671875,0.0,0.0,0.0,0.0,0.0,0.0,0.0,0.0,0.0,0.0,0.0,0.0,0.0,0.0,0.0,0.0,0.0,0.0,0.0,0.0,0.0,0.0,0.0,0.0,0.0,0.0,0.0,0.0,0.0,0.0,0.0,0.0,0.0,0.0,0.0,0.0,0.0,0.0,0.0,0.0,0.0,0.0,0.0,0.0,0.0,0.0,0.0,0.0,0.0,0.0,0.0,0.0,0.0,0.0,0.0,0.0,0.0,0.0,0.0,0.0,0.0,0.0,0.0,0.0,-0.00021763404947705567,1.6199206584133208e-05,-3.070360253332183e-05,2.0523571947705932e-05,0.0,0.0,0.0,0.0,6.30261201877147e-05,-0.00020268987282179296,-0.0003091517137363553,9.0497105702525e-06,0.00021970440866425633,-1.9680735931615345e-05,0.00010410322283860296,-0.00019628241716418415,-0.16229382157325745,0.14588500559329987,9.323654174804688,-0.3167065382003784,0.10883230715990067,0.027669865638017654,0.0,0.0,0.0,0.05727154761552811,-0.15284612774848938,9.277108192443848,0.2793179750442505,0.040013253688812256,0.019652321934700012,0.0,0.0,0.0,0.2522045373916626,-8.01323127746582,9.521623611450195,1.2376786470413208,-0.5400570631027222,0.010874241590499878,0.0,0.0,0.0,-0.33748096227645874,-9.478253364562988,4.064030170440674,1.0309220552444458,-0.5195562839508057,0.1647828072309494,0.0,0.0,0.0,0.0,0.0,0.0,0.0,0.0,0.0,0.0,0.0,0.0,0.0,0.0,0.0,0.0,0.0,0.0,0.0,0.0,0.0,0.0,0.0,0.0,0.0,0.0,0.0,0.0,0.0,0.0,0.0,0.0,0.0,0.0,0.0,0.0,0.0,0.0,0.0,-0.2018425017595291,0.08572354167699814,9.48631477355957,-0.1892968863248825,-0.005034459289163351,-0.032990992069244385,0.0,0.0,0.0,0.21320867538452148,-0.05109655484557152,9.51421070098877,0.06981157511472702,0.2785404324531555,-0.0065206256695091724,0.0,0.0,0.0,0.03572753444314003,-0.1436762809753418,9.495331764221191,-0.17774181067943573,0.103521928191185,0.048824477940797806,0.0,0.0,0.0,7.1558308601379395,-2.408548355102539,10.591856956481934,-1.6047306060791016,-1.1963002681732178,0.6266833543777466,0.0,0.0,0.0,-0.20376518368721008,-0.0178395826369524,9.520003318786621,0.1999283879995346,-0.08208602666854858,0.07144376635551453,0.0,0.0,0.0,-10.835533142089844,-0.2970937192440033,9.777120590209961,-1.0994648933410645,1.9844589233398438,0.33965039253234863,0.0,0.0,0.0,0.025042567402124405,-0.2081342488527298,9.12353229522705,0.02005813829600811,-0.068752720952034,0.049721185117959976,0.0,0.0,0.0,-0.01704164408147335,0.1382550597190857,9.526223182678223,0.04726399481296539,0.05597126483917236,-0.000286669033812359,0.0,0.0,0.0
0.003,0.0,0.0,0.0,0.0,0.0,0.0,0.0,0.0,0.0,0.0,0.0,0.0,11.115116119384766,-0.16235770285129547,-194.8101806640625,9655.7001953125,24566.0390625,-596.283935546875,0.0,0.0,0.0,0.0,0.0,0.0,0.00457763671875,0.0054931640625,0.00732421875,0.00244140625,0.00274658203125,0.00457763671875,0.0,0.0,0.0,0.0,0.0,0.0,0.0,0.0,0.0,0.0,0.0,0.0,0.0,0.0,0.0,0.0,0.0,0.0,0.0,0.0,0.0,0.0,0.0,0.0,0.0,0.0,0.0,0.0,0.0,0.0,0.0,0.0,0.0,0.0,0.0,0.0,0.0,0.0,0.0,0.0,0.0,0.0,0.0,0.0,0.0,0.0,0.0,0.0,0.0,0.0,0.0,0.0,0.0,0.0,0.0,0.0,0.0,0.0,0.0,0.0,0.0,0.0,0.0,0.0,-0.00017185899196192622,1.3999858310853597e-05,1.6839405361679383e-05,2.14248284464702e-05,0.0,0.0,0.0,0.0,0.00014971059863455594,-0.0002784057578537613,-0.00040880576125346124,9.305315870733466e-06,0.0002960422425530851,-2.3592356228618883e-05,-6.021574517944828e-05,-5.4960401030257344e-05,-0.1621084213256836,0.14463551342487335,9.32396125793457,-0.3164915442466736,0.10896847397089005,0.027669865638017654,0.0,0.0,0.0,0.059585124254226685,-0.15496622025966644,9.278099060058594,0.27903488278388977,0.0398036353290081,0.019374623894691467,0.0,0.0,0.0,0.23908884823322296,-8.00915241241455,9.517914772033691,1.228835105895996,-0.5426316261291504,0.010404831729829311,0.0,0.0,0.0,-0.32595327496528625,-9.46926498413086,4.095243453979492,1.0164366960525513,-0.5206652879714966,0.16190186142921448,0.0,0.0,0.0,0.0,0.0,0.0,0.0,0.0,0.0,0.0,0.0,0.0,0.0,0.0,0.0,0.0,0.0,0.0,0.0,0.0,0.0,0.0,0.0,0.0,0.0,0.0,0.0,0.0,0.0,0.0,0.0,0.0,0.0,0.0,0.0,0.0,0.0,0.0,0.0,-0.2022455781698227,0.08307944983243942,9.486475944519043,-0.1892341822385788,-0.004892922006547451,-0.032990992069244385,0.0,0.0,0.0,0.20974235236644745,-0.05267655476927757,9.511688232421875,0.06960195302963257,0.27839890122413635,-0.006583331618458033,0.0,0.0,0.0,0.0344538614153862,-0.1437004655599594,9.495259284973145,-0.17775793373584747,0.10366883873939514,0.048767149448394775,0.0,0.0,0.0,7.172041416168213,-2.435408592224121,10.557378768920898,-1.6084303855895996,-1.147096872329712,0.619040310382843,0.0,0.0,0.0,-0.20511141419410706,-0.01717855967581272,9.520333290100098,0.19985494017601013,-0.08215410262346268,0.07151184231042862,0.0,0.0,0.0,-10.790075302124023,-0.2826157212257385,9.76130485534668,-1.0977952480316162,1.8969005346298218,0.3581452965736389,0.0,0.0,0.0,0.027992982417345047,-0.20688475668430328,9.122000694274902,0.019968556240200996,-0.06854847818613052,0.04956889525055885,0.0,0.0,0.0,-0.018412059172987938,0.13797292113304138,9.52482795715332,0.04748436436057091,0.05575627088546753,-0.0004282064037397504,0.0,0.0,0.0
0.004,0.0,0.0,0.0,0.0,0.0,0.0,0.0,0.0,0.0,0.0,0.0,0.0,11.420291900634766,-0.4675334692001343,-193.5894775390625,9564.1474609375,24627.07421875,-458.9546813964844,0.0,0.0,0.0,0.0,0.0,0.0,0.00457763671875,0.00457763671875,0.00732421875,0.00244140625,0.0030517578125,0.00396728515625,0.0,0.0,0.0,0.0,0.0,0.0,0.0,0.0,0.0,0.0,0.0,0.0,0.0,0.0,0.0,0.0,0.0,0.0,0.0,0.0,0.0,0.0,0.0,0.0,0.0,0.0,0.0,0.0,0.0,0.0,0.0,0.0,0.0,0.0,0.0,0.0,0.0,0.0,0.0,0.0,0.0,0.0,0.0,0.0,0.0,0.0,0.0,0.0,0.0,0.0,0.0,0.0,0.0,0.0,0.0,0.0,0.0,0.0,0.0,0.0,0.0,0.0,0.0,0.0,-0.00012804674042854458,1.15250932140043e-05,6.339822721201926e-05,2.5371473384439014e-05,0.0,0.0,0.0,0.0,0.0002224651980213821,-0.00033634869032539427,-0.0004864321672357619,6.054298864910379e-06,0.00035334876156412065,-2.5054789148271084e-05,-0.00020689894154202193,7.486935646738857e-05,-0.16192302107810974,0.14338603615760803,9.324267387390137,-0.31627655029296875,0.10910463333129883,0.027669865638017654,0.0,0.0,0.0,0.06189870089292526,-0.1570863127708435,9.279090881347656,0.27875182032585144,0.03959401696920395,0.019096923992037773,0.0,0.0,0.0,0.22597317397594452,-8.005073547363281,9.514206886291504,1.219991683959961,-0.5452062487602234,0.00993542093783617,0.0,0.0,0.0,-0.31442561745643616,-9.46027660369873,4.1264567375183105,1.0019514560699463,-0.5217742919921875,0.15902093052864075,0.0,0.0,0.0,0.0,0.0,0.0,0.0,0.0,0.0,0.0,0.0,0.0,0.0,0.0,0.0,0.0,0.0,0.0,0.0,0.0,0.0,0.0,0.0,0.0,0.0,0.0,0.0,0.0,0.0,0.0,0.0,0.0,0.0,0.0,0.0,0.0,0.0,0.0,0.0,-0.20264863967895508,0.0804353654384613,9.486637115478516,-0.18917147815227509,-0.004751384723931551,-0.032990992069244385,0.0,0.0,0.0,0.2062760293483734,-0.05425655096769333,9.509164810180664,0.06939233839511871,0.2782573401927948,-0.0066460371017456055,0.0,0.0,0.0,0.03318018838763237,-0.14372465014457703,9.495186805725098,-0.17777405679225922,0.10381575673818588,0.04870981723070145,0.0,0.0,0.0,7.1882524490356445,-2.462268590927124,10.52290153503418,-1.612130045890808,-1.0978933572769165,0.6113972663879395,0.0,0.0,0.0,-0.20645764470100403,-0.01651753857731819,9.52066421508789,0.19978147745132446,-0.08222218602895737,0.07157992571592331,0.0,0.0,0.0,-10.744617462158203,-0.26813769340515137,9.745488166809082,-1.0961254835128784,1.8093420267105103,0.3766401708126068,0.0,0.0,0.0,0.03094339556992054,-0.20563527941703796,9.120469093322754,0.019878974184393883,-0.06834423542022705,0.04941660910844803,0.0,0.0,0.0,-0.019782474264502525,0.13769078254699707,9.523433685302734,0.047704730182886124,0.055541276931762695,-0.0005697437445633113,0.0,0.0,0.0
0.004,0.0,0.0,0.0,0.0,0.0,0.0,0.0,0.0,0.0,0.0,0.0,0.0,11.725467681884766,-0.7727092504501343,-192.3687744140625,9472.5947265625,24688.109375,-321.62554931640625,0.0,0.0,0.0,0.0,0.0,0.0,0.00457763671875,0.00457763671875,0.00732421875,0.00244140625,0.0030517578125,0.00396728515625,0.0,0.0,0.0,0.0,0.0,0.0,0.0,0.0,0.0,0.0,0.0,0.0,0.0,0.0,0.0,0.0,0.0,0.0,0.0,0.0,0.0,0.0,0.0,0.0,0.0,0.0,0.0,0.0,0.0,0.0,0.0,0.0,0.0,0.0,0.0,0.0,0.0,0.0,0.0,0.0,0.0,0.0,0.0,0.0,0.0,0.0,0.0,0.0,0.0,0.0,0.0,0.0,0.0,0.0,0.0,0.0,0.0,0.0,0.0,0.0,0.0,0.0,0.0,0.0,-7.65240183682181e-05,8.670889656059444e-06,8.651574898976833e-05,2.795659747789614e-05,0.0,0.0,0.0,0.0,0.00030407606391236186,-0.0003978703753091395,-0.0005715862498618662,2.8577630928339204e-06,0.00041366738150827587,-2.259399479953572e-05,-0.0003804046427831054,0.00022782219457440078,-0.1617376208305359,0.14213654398918152,9.324573516845703,-0.3160615563392639,0.10924079269170761,0.027669865638017654,0.0,0.0,0.0,0.06421227753162384,-0.15920640528202057,9.280082702636719,0.2784687578678131,0.039384398609399796,0.01881922408938408,0.0,0.0,0.0,0.21285748481750488,-8.000993728637695,9.510499000549316,1.2111482620239258,-0.5477808117866516,0.009466011077165604,0.0,0.0,0.0,-0.30289795994758606,-9.451288223266602,4.157670021057129,0.9874661564826965,-0.5228832960128784,0.15613999962806702,0.0,0.0,0.0,0.0,0.0,0.0,0.0,0.0,0.0,0.0,0.0,0.0,0.0,0.0,0.0,0.0,0.0,0.0,0.0,0.0,0.0,0.0,0.0,0.0,0.0,0.0,0.0,0.0,0.0,0.0,0.0,0.0,0.0,0.0,0.0,0.0,0.0,0.0,0.0,-0.20305171608924866,0.07779127359390259,9.486798286437988,-0.18910877406597137,-0.004609846975654364,-0.032990992069244385,0.0,0.0,0.0,0.20280970633029938,-0.055836550891399384,9.506641387939453,0.06918271631002426,0.27811580896377563,-0.006708743050694466,0.0,0.0,0.0,0.03190651535987854,-0.14374883472919464,9.49511432647705,-0.17779019474983215,0.10396266728639603,0.048652488738298416,0.0,0.0,0.0,7.204463481903076,-2.489128828048706,10.488423347473145,-1.6158297061920166,-1.0486899614334106,0.6037542223930359,0.0,0.0,0.0,-0.207803875207901,-0.015856515616178513,9.520994186401367,0.1997080296278,-0.08229026943445206,0.071648009121418,0.0,0.0,0.0,-10.699159622192383,-0.2536596953868866,9.7296724319458,-1.0944557189941406,1.7217835187911987,0.3951350450515747,0.0,0.0,0.0,0.03389380872249603,-0.20438578724861145,9.118937492370605,0.01978939212858677,-0.06813999265432358,0.049264319241046906,0.0,0.0,0.0,-0.021152889356017113,0.13740862905979156,9.522039413452148,0.04792509973049164,0.05532628297805786,-0.0007112810853868723,0.0,0.0,0.0
0.004,0.0,0.0,0.0,0.0,0.0,0.0,0.0,0.0,0.0,0.0,0.0,0.0,11.420291900634766,-0.3149455785751343,-192.6739501953125,9381.0419921875,24688.109375,-321.62554931640625,0.0,0.0,0.0,0.0,0.0,0.0,0.0054931640625,0.0048828125,0.00762939453125,0.00213623046875,0.0030517578125,0.00396728515625,0.0,0.0,0.0,0.0,0.0,0.0,0.0,0.0,0.0,0.0,0.0,0.0,0.0,0.0,0.0,0.0,0.0,0.0,0.0,0.0,0.0,0.0,0.0,0.0,0.0,0.0,0.0,0.0,0.0,0.0,0.0,0.0,0.0,0.0,0.0,0.0,0.0,0.0,0.0,0.0,0.0,0.0,0.0,0.0,0.0,0.0,0.0,0.0,0.0,0.0,0.0,0.0,0.0,0.0,0.0,0.0,0.0,0.0,0.0,0.0,0.0,0.0,0.0,0.0,-2.260495602968149e-05,5.6355452215939295e-06,9.505023626843467e-05,1.4585139979317319e-05,0.0,0.0,0.0,0.0,0.00036672563874162734,-0.00043758380343206227,-0.0006233442691154778,-9.902475994749693e-07,0.00044715756666846573,-1.88423327927012e-05,-0.000531475234311074,0.00036386496503837407,-0.16155222058296204,0.140887051820755,9.32487964630127,-0.3158465623855591,0.10937695950269699,0.027669865638017654,0.0,0.0,0.0,0.06652585417032242,-0.16132651269435883,9.281074523925781,0.2781856954097748,0.03917478024959564,0.018541526049375534,0.0,0.0,0.0,0.19974181056022644,-7.996915340423584,9.506791114807129,1.2023048400878906,-0.5503553748130798,0.008996600285172462,0.0,0.0,0.0,-0.29137030243873596,-9.442299842834473,4.188882827758789,0.9729809165000916,-0.5239923000335693,0.1532590538263321,0.0,0.0,0.0,0.0,0.0,0.0,0.0,0.0,0.0,0.0,0.0,0.0,0.0,0.0,0.0,0.0,0.0,0.0,0.0,0.0,0.0,0.0,0.0,0.0,0.0,0.0,0.0,0.0,0.0,0.0,0.0,0.0,0.0,0.0,0.0,0.0,0.0,0.0,0.0,-0.20345477759838104,0.07514718919992447,9.486959457397461,-0.18904606997966766,-0.004468309693038464,-0.032990992069244385,0.0,0.0,0.0,0.19934338331222534,-0.05741655081510544,9.504117965698242,0.0689731016755104,0.27797427773475647,-0.006771448999643326,0.0,0.0,0.0,0.03063284046947956,-0.14377301931381226,9.495041847229004,-0.1778063178062439,0.10410957783460617,0.04859515652060509,0.0,0.0,0.0,7.220674514770508,-2.515988826751709,10.45394515991211,-1.619529366493225,-0.99948650598526,0.5961111187934875,0.0,0.0,0.0,-0.20915010571479797,-0.015195493586361408,9.52132511138916,0.19963456690311432,-0.08235834538936615,0.07171608507633209,0.0,0.0,0.0,-10.653701782226562,-0.23918168246746063,9.713855743408203,-1.0927860736846924,1.6342251300811768,0.4136299192905426,0.0,0.0,0.0,0.036844223737716675,-0.20313629508018494,9.117405891418457,0.019699810072779655,-0.0679357498884201,0.04911203309893608,0.0,0.0,0.0,-0.0225233044475317,0.13712649047374725,9.520644187927246,0.04814546927809715,0.05511128902435303,-0.0008528184844180942,0.0,0.0,0.0
0.005,0.0,0.0,0.0,0.0,0.0,0.0,0.0,0.0,0.0,0.0,0.0,0.0,11.115116119384766,0.14281807839870453,-192.9791259765625,9289.4892578125,24688.109375,-321.62554931640625,0.0,0.0,0.0,0.0,0.0,0.0,0.0054931640625,0.0048828125,0.00762939453125,0.00213623046875,0.0030517578125,0.00396728515625,0.0,0.0,0.0,0.0,0.0,0.0,0.0,0.0,0.0,0.0,0.0,0.0,0.0,0.0,0.0,0.0,0.0,0.0,0.0,0.0,0.0,0.0,0.0,0.0,0.0,0.0,0.0,0.0,0.0,0.0,0.0,0.0,0.0,0.0,0.0,0.0,0.0,0.0,0.0,0.0,0.0,0.0,0.0,0.0,0.0,0.0,0.0,0.0,0.0,0.0,0.0,0.0,0.0,0.0,0.0,0.0,0.0,0.0,0.0,0.0,0.0,0.0,0.0,0.0,2.9073773475829512e-05,2.6410423288325546e-06,9.193804726237431e-05,-1.6984136891551316e-05,0.0,0.0,0.0,0.0,0.0004087557317689061,-0.00045442860573530197,-0.0006438072887249291,-3.1856941404839745e-06,0.000456459034467116,-1.648165016376879e-05,-0.0006491824751719832,0.00047508691204711795,-0.16136682033538818,0.1396375596523285,9.325186729431152,-0.31563156843185425,0.10951311886310577,0.027669865638017654,0.0,0.0,0.0,0.068839430809021,-0.1634466052055359,9.282065391540527,0.27790260314941406,0.03896516188979149,0.01826382614672184,0.0,0.0,0.0,0.1866261214017868,-7.992835998535156,9.503082275390625,1.193461298942566,-0.5529299378395081,0.008527190424501896,0.0,0.0,0.0,-0.2798426151275635,-9.433311462402344,4.220096111297607,0.9584956169128418,-0.5251013040542603,0.15037812292575836,0.0,0.0,0.0,0.0,0.0,0.0,0.0,0.0,0.0,0.0,0.0,0.0,0.0,0.0,0.0,0.0,0.0,0.0,0.0,0.0,0.0,0.0,0.0,0.0,0.0,0.0,0.0,0.0,0.0,0.0,0.0,0.0,0.0,0.0,0.0,0.0,0.0,0.0,0.0,-0.20385783910751343,0.07250309735536575,9.487120628356934,-0.18898336589336395,-0.0043267724104225636,-0.032990992069244385,0.0,0.0,0.0,0.1958770602941513,-0.05899655073881149,9.501595497131348,0.06876347959041595,0.2778327465057373,-0.006834154948592186,0.0,0.0,0.0,0.02935916744172573,-0.14379720389842987,9.494969367980957,-0.17782244086265564,0.10425648838281631,0.04853782802820206,0.0,0.0,0.0,7.236885070800781,-2.542849063873291,10.419466972351074,-1.6232291460037231,-0.9502830505371094,0.588468074798584,0.0,0.0,0.0,-0.21049633622169495,-0.014534471556544304,9.521656036376953,0.19956111907958984,-0.08242642879486084,0.07178416848182678,0.0,0.0,0.0,-10.608243942260742,-0.22470366954803467,9.698039054870605,-1.0911163091659546,1.5466666221618652,0.4321248233318329,0.0,0.0,0.0,0.03979463875293732,-0.20188680291175842,9.115874290466309,0.019610228016972542,-0.06773150712251663,0.048959746956825256,0.0,0.0,0.0,-0.023893719539046288,0.13684435188770294,9.51924991607666,0.04836583882570267,0.05489629507064819,-0.0009943557670339942,0.0,0.0,0.0
0.005,0.0,0.0,0.0,0.0,0.0,0.0,0.0,0.0,0.0,0.0,0.0,0.0,10.962528228759766,-0.16235768795013428,-193.2843017578125,9289.4892578125,24566.0390625,-413.1783142089844,0.0,0.0,0.0,0.0,0.0,0.0,0.0054931640625,0.0048828125,0.00732421875,0.00213623046875,0.00335693359375,0.00396728515625,0.0,0.0,0.0,0.0,0.0,0.0,0.0,0.0,0.0,0.0,0.0,0.0,0.0,0.0,0.0,0.0,0.0,0.0,0.0,0.0,0.0,0.0,0.0,0.0,0.0,0.0,0.0,0.0,0.0,0.0,0.0,0.0,0.0,0.0,0.0,0.0,0.0,0.0,0.0,0.0,0.0,0.0,0.0,0.0,0.0,0.0,0.0,0.0,0.0,0.0,0.0,0.0,0.0,0.0,0.0,0.0,0.0,0.0,0.0,0.0,0.0,0.0,0.0,0.0,8.135606185533106e-05,-5.146889634488616e-07,7.452922000084072e-05,-5.278052412904799e-05,0.0,0.0,0.0,0.0,0.0004467558756005019,-0.00046292998013086617,-0.0006555020809173584,-2.132923327735625e-06,0.00046206338447518647,-1.5194286788755562e-05,-0.0007576216594316065,0.0005826334818266332,-0.16118142008781433,0.13838808238506317,9.325492858886719,-0.3154165744781494,0.10964927822351456,0.027669865638017654,0.0,0.0,0.0,0.07115300744771957,-0.16556669771671295,9.28305721282959,0.27761954069137573,0.038755543529987335,0.017986126244068146,0.0,0.0,0.0,0.17351044714450836,-7.988757133483887,9.499374389648438,1.1846178770065308,-0.555504560470581,0.008057779632508755,0.0,0.0,0.0,-0.2683149576187134,-9.424323081970215,4.251309394836426,0.944010317325592,-0.5262102484703064,0.14749717712402344,0.0,0.0,0.0,0.0,0.0,0.0,0.0,0.0,0.0,0.0,0.0,0.0,0.0,0.0,0.0,0.0,0.0,0.0,0.0,0.0,0.0,0.0,0.0,0.0,0.0,0.0,0.0,0.0,0.0,0.0,0.0,0.0,0.0,0.0,0.0,0.0,0.0,0.0,0.0,-0.204260915517807,0.06985901296138763,9.487281799316406,-0.18892064690589905,-0.0041852351278066635,-0.032990992069244385,0.0,0.0,0.0,0.19241073727607727,-0.06057654693722725,9.499072074890137,0.0685538649559021,0.27769121527671814,-0.006896860431879759,0.0,0.0,0.0,0.0280854944139719,-0.14382138848304749,9.494895935058594,-0.17783856391906738,0.10440340638160706,0.04848049581050873,0.0,0.0,0.0,7.253096103668213,-2.569709062576294,10.384988784790039,-1.6269288063049316,-0.9010795950889587,0.5808250308036804,0.0,0.0,0.0,-0.21184255182743073,-0.0138734495267272,9.52198600769043,0.19948765635490417,-0.08249450474977493,0.07185224443674088,0.0,0.0,0.0,-10.562785148620605,-0.2102256566286087,9.682223320007324,-1.0894465446472168,1.4591082334518433,0.4506196975708008,0.0,0.0,0.0,0.04274505004286766,-0.2006373256444931,9.11434268951416,0.019520647823810577,-0.06752726435661316,0.04880745708942413,0.0,0.0,0.0,-0.025264132767915726,0.13656221330165863,9.517854690551758,0.04858620837330818,0.05468130484223366,-0.001135893166065216,0.0,0.0,0.0
0.006,0.0,0.0,0.0,0.0,0.0,0.0,0.0,0.0,0.0,0.0,0.0,0.0,10.809940338134766,-0.4675334692001343,-193.5894775390625,9289.4892578125,24443.96875,-504.7310485839844,0.0,0.0,0.0,0.0,0.0,0.0,0.0054931640625,0.0048828125,0.00732421875,0.00213623046875,0.00335693359375,0.00396728515625,0.0,0.0,0.0,0.0,0.0,0.0,0.0,0.0,0.0,0.0,0.0,0.0,0.0,0.0,0.0,0.0,0.0,0.0,0.0,0.0,0.0,0.0,0.0,0.0,0.0,0.0,0.0,0.0,0.0,0.0,0.0,0.0,0.0,0.0,0.0,0.0,0.0,0.0,0.0,0.0,0.0,0.0,0.0,0.0,0.0,0.0,0.0,0.0,0.0,0.0,0.0,0.0,0.0,0.0,0.0,0.0,0.0,0.0,0.0,0.0,0.0,0.0,0.0,0.0,0.0001319216680712998,-3.83379074264667e-06,4.834819628740661e-05,-7.389545498881489e-05,0.0,0.0,0.0,0.0,0.0004726163751911372,-0.0004570779565256089,-0.000644231156911701,-2.0699553715530783e-07,0.0004550761659629643,-1.3716009561903775e-05,-0.0008436933858320117,0.000673327362164855,-0.16099601984024048,0.13713859021663666,9.325798988342285,-0.3152015805244446,0.10978544503450394,0.027669865638017654,0.0,0.0,0.0,0.07346658408641815,-0.16768679022789001,9.284049034118652,0.2773364782333374,0.03854592517018318,0.0177084282040596,0.0,0.0,0.0,0.16039475798606873,-7.984678268432617,9.49566650390625,1.1757744550704956,-0.5580791234970093,0.007588369306176901,0.0,0.0,0.0,-0.2567873001098633,-9.415334701538086,4.282522678375244,0.9295250773429871,-0.5273192524909973,0.1446162462234497,0.0,0.0,0.0,0.0,0.0,0.0,0.0,0.0,0.0,0.0,0.0,0.0,0.0,0.0,0.0,0.0,0.0,0.0,0.0,0.0,0.0,0.0,0.0,0.0,0.0,0.0,0.0,0.0,0.0,0.0,0.0,0.0,0.0,0.0,0.0,0.0,0.0,0.0,0.0,-0.2046639770269394,0.06721492111682892,9.487442970275879,-0.18885794281959534,-0.0040436978451907635,-0.032990992069244385,0.0,0.0,0.0,0.18894441425800323,-0.062156546860933304,9.496548652648926,0.06834424287080765,0.277549684047699,-0.006959566380828619,0.0,0.0,0.0,0.02681182138621807,-0.1438455730676651,9.494823455810547,-0.17785468697547913,0.1045503169298172,0.0484231673181057,0.0,0.0,0.0,7.2693071365356445,-2.596569299697876,10.350510597229004,-1.6306284666061401,-0.8518761396408081,0.5731819868087769,0.0,0.0,0.0,-0.2131887823343277,-0.013212427496910095,9.522316932678223,0.1994142085313797,-0.08256258815526962,0.07192032784223557,0.0,0.0,0.0,-10.517327308654785,-0.19574764370918274,9.666406631469727,-1.0877768993377686,1.3715497255325317,0.4691145718097687,0.0,0.0,0.0,0.0456954650580883,-0.1993878334760666,9.112811088562012,0.019431065768003464,-0.06732302159070969,0.04865517094731331,0.0,0.0,0.0,-0.026634547859430313,0.13628007471561432,9.516460418701172,0.048806577920913696,0.054466310888528824,-0.001277430565096438,0.0,0.0,0.0
0.006,0.0,0.0,0.0,0.0,0.0,0.0,0.0,0.0,0.0,0.0,0.0,0.0,10.657352447509766,-0.4675334692001343,-193.5894775390625,9381.0419921875,24505.00390625,-504.7310485839844,0.0,0.0,0.0,0.0,0.0,0.0,0.0054931640625,0.00457763671875,0.0067138671875,0.00213623046875,0.00335693359375,0.00457763671875,0.0,0.0,0.0,0.0,0.0,0.0,0.0,0.0,0.0,0.0,0.0,0.0,0.0,0.0,0.0,0.0,0.0,0.0,0.0,0.0,0.0,0.0,0.0,0.0,0.0,0.0,0.0,0.0,0.0,0.0,0.0,0.0,0.0,0.0,0.0,0.0,0.0,0.0,0.0,0.0,0.0,0.0,0.0,0.0,0.0,0.0,0.0,0.0,0.0,0.0,0.0,0.0,0.0,0.0,0.0,0.0,0.0,0.0,0.0,0.0,0.0,0.0,0.0,0.0,0.0001757604186423123,-6.869191565783694e-06,1.8574037312646396e-05,-7.08356310497038e-05,0.0,0.0,0.0,0.0,0.00047681547584943473,-0.0004325851914472878,-0.0006009399658069015,1.4188384511726326e-07,0.0004251391510479152,-1.2293609870539512e-05,-0.0008952291100285947,0.0007304798346012831,-0.16081061959266663,0.13588909804821014,9.326105117797852,-0.31498658657073975,0.10992160439491272,0.027669865638017654,0.0,0.0,0.0,0.07578016072511673,-0.16980688273906708,9.285039901733398,0.2770533859729767,0.03833630681037903,0.017430728301405907,0.0,0.0,0.0,0.14727908372879028,-7.9805989265441895,9.491957664489746,1.166930913925171,-0.5606536865234375,0.007118958979845047,0.0,0.0,0.0,-0.245259627699852,-9.406346321105957,4.3137359619140625,0.9150397777557373,-0.5284282565116882,0.14173531532287598,0.0,0.0,0.0,0.0,0.0,0.0,0.0,0.0,0.0,0.0,0.0,0.0,0.0,0.0,0.0,0.0,0.0,0.0,0.0,0.0,0.0,0.0,0.0,0.0,0.0,0.0,0.0,0.0,0.0,0.0,0.0,0.0,0.0,0.0,0.0,0.0,0.0,0.0,0.0,-0.20506705343723297,0.0645708367228508,9.487604141235352,-0.18879523873329163,-0.0039021603297442198,-0.032990992069244385,0.0,0.0,0.0,0.1854780912399292,-0.06373654305934906,9.494026184082031,0.06813462823629379,0.2774081230163574,-0.007022272329777479,0.0,0.0,0.0,0.02553814835846424,-0.14386975765228271,9.4947509765625,-0.17787081003189087,0.10469722747802734,0.04836583510041237,0.0,0.0,0.0,7.285518169403076,-2.623429298400879,10.316033363342285,-1.6343281269073486,-0.8026726841926575,0.5655389428138733,0.0,0.0,0.0,-0.21453501284122467,-0.012551405467092991,9.5226469039917,0.19934074580669403,-0.08263067156076431,0.07198841124773026,0.0,0.0,0.0,-10.471869468688965,-0.18126963078975677,9.650590896606445,-1.0861071348190308,1.2839912176132202,0.4876094460487366,0.0,0.0,0.0,0.048645876348018646,-0.19813834130764008,9.111279487609863,0.01934148371219635,-0.06711877882480621,0.048502881079912186,0.0,0.0,0.0,-0.0280049629509449,0.13599793612957,9.515066146850586,0.04902694374322891,0.05425131693482399,-0.001418967847712338,0.0,0.0,0.0
0.007,0.0,0.0,0.0,0.0,0.0,0.0,0.0,0.0,0.0,0.0,0.0,0.0,10.504764556884766,-0.4675334692001343,-193.5894775390625,9472.5947265625,24566.0390625,-504.7310485839844,0.0,0.0,0.0,0.0,0.0,0.0,0.0054931640625,0.00457763671875,0.0067138671875,0.00213623046875,0.00335693359375,0.00457763671875,0.0,0.0,0.0,0.0,0.0,0.0,0.0,0.0,0.0,0.0,0.0,0.0,0.0,0.0,0.0,0.0,0.0,0.0,0.0,0.0,0.0,0.0,0.0,0.0,0.0,0.0,0.0,0.0,0.0,0.0,0.0,0.0,0.0,0.0,0.0,0.0,0.0,0.0,0.0,0.0,0.0,0.0,0.0,0.0,0.0,0.0,0.0,0.0,0.0,0.0,0.0,0.0,0.0,0.0,0.0,0.0,0.0,0.0,0.0,0.0,0.0,0.0,0.0,0.0,0.00021203419601079077,-9.406252502230927e-06,-1.3948443665867671e-05,-5.532472277991474e-05,0.0,0.0,0.0,0.0,0.00046139070764184,-0.00039232740527950227,-0.0005350090796127915,-2.6294924282410648e-06,0.000376211159164086,-1.0171757821808569e-05,-0.0009198107873089612,0.0007578344084322453,-0.16062521934509277,0.13463960587978363,9.326412200927734,-0.3147715926170349,0.1100577637553215,0.027669865638017654,0.0,0.0,0.0,0.07809373736381531,-0.17192697525024414,9.286031723022461,0.27677032351493835,0.038126688450574875,0.017153028398752213,0.0,0.0,0.0,0.13416339457035065,-7.97652006149292,9.488249778747559,1.1580874919891357,-0.5632282495498657,0.006649548653513193,0.0,0.0,0.0,-0.2337319701910019,-9.397357940673828,4.344949245452881,0.9005544781684875,-0.5295372605323792,0.13885436952114105,0.0,0.0,0.0,0.0,0.0,0.0,0.0,0.0,0.0,0.0,0.0,0.0,0.0,0.0,0.0,0.0,0.0,0.0,0.0,0.0,0.0,0.0,0.0,0.0,0.0,0.0,0.0,0.0,0.0,0.0,0.0,0.0,0.0,0.0,0.0,0.0,0.0,0.0,0.0,-0.20547011494636536,0.061926744878292084,9.487765312194824,-0.18873253464698792,-0.0037606230471283197,-0.032990992069244385,0.0,0.0,0.0,0.18201176822185516,-0.06531654298305511,9.49150276184082,0.06792501360177994,0.27726659178733826,-0.007084978278726339,0.0,0.0,0.0,0.02426447533071041,-0.14389394223690033,9.494678497314453,-0.1778869330883026,0.10484413802623749,0.04830850288271904,0.0,0.0,0.0,7.30172872543335,-2.650289535522461,10.28155517578125,-1.6380279064178467,-0.7534692287445068,0.5578958988189697,0.0,0.0,0.0,-0.21588124334812164,-0.011890383437275887,9.522977828979492,0.19926728308200836,-0.0826987475156784,0.07205648720264435,0.0,0.0,0.0,-10.426411628723145,-0.1667916178703308,9.634774208068848,-1.084437370300293,1.1964328289031982,0.5061043500900269,0.0,0.0,0.0,0.05159629136323929,-0.19688884913921356,9.109747886657715,0.019251901656389236,-0.06691453605890274,0.04835059493780136,0.0,0.0,0.0,-0.029375378042459488,0.1357157975435257,9.513670921325684,0.04924731329083443,0.054036322981119156,-0.0015605052467435598,0.0,0.0,0.0
0.007,0.0,0.0,0.0,0.0,0.0,0.0,0.0,0.0,0.0,0.0,0.0,0.0,10.504764556884766,-0.3149455785751343,-193.2843017578125,9472.5947265625,24505.00390625,-413.1783142089844,0.0,0.0,0.0,0.0,0.0,0.0,0.0048828125,0.0054931640625,0.0067138671875,0.00244140625,0.00335693359375,0.00457763671875,0.0,0.0,0.0,0.0,0.0,0.0,0.0,0.0,0.0,0.0,0.0,0.0,0.0,0.0,0.0,0.0,0.0,0.0,0.0,0.0,0.0,0.0,0.0,0.0,0.0,0.0,0.0,0.0,0.0,0.0,0.0,0.0,0.0,0.0,0.0,0.0,0.0,0.0,0.0,0.0,0.0,0.0,0.0,0.0,0.0,0.0,0.0,0.0,0.0,0.0,0.0,0.0,0.0,0.0,0.0,0.0,0.0,0.0,0.0,0.0,0.0,0.0,0.0,0.0,0.00024153522099368274,-1.1623786122072488e-05,-4.274388629710302e-05,-4.672647992265411e-05,0.0,0.0,0.0,0.0,0.00043108221143484116,-0.0003389708581380546,-0.00045626418432220817,-9.540733117319178e-06,0.00031814302201382816,-5.876528575754492e-06,-0.0009227190166711807,0.000764606287702918,-0.16043981909751892,0.13339011371135712,9.3267183303833,-0.3145565986633301,0.11019393056631088,0.027669865638017654,0.0,0.0,0.0,0.08040731400251389,-0.1740470677614212,9.287023544311523,0.2764872610569,0.03791707009077072,0.016875330358743668,0.0,0.0,0.0,0.12104771286249161,-7.97244119644165,9.484541893005371,1.1492440700531006,-0.565802812576294,0.006180138327181339,0.0,0.0,0.0,-0.2222042977809906,-9.3883695602417,4.376162528991699,0.8860692381858826,-0.5306462645530701,0.13597343862056732,0.0,0.0,0.0,0.0,0.0,0.0,0.0,0.0,0.0,0.0,0.0,0.0,0.0,0.0,0.0,0.0,0.0,0.0,0.0,0.0,0.0,0.0,0.0,0.0,0.0,0.0,0.0,0.0,0.0,0.0,0.0,0.0,0.0,0.0,0.0,0.0,0.0,0.0,0.0,-0.20587317645549774,0.059282656759023666,9.487926483154297,-0.1886698305606842,-0.0036190857645124197,-0.032990992069244385,0.0,0.0,0.0,0.17854544520378113,-0.06689654290676117,9.48897933959961,0.06771539151668549,0.2771250605583191,-0.0071476842276751995,0.0,0.0,0.0,0.022990800440311432,-0.14391812682151794,9.494606018066406,-0.17790307104587555,0.10499104857444763,0.04825117439031601,0.0,0.0,0.0,7.317939758300781,-2.677149534225464,10.247076988220215,-1.6417275667190552,-0.7042657732963562,0.5502528548240662,0.0,0.0,0.0,-0.21722747385501862,-0.011229361407458782,9.523308753967285,0.1991938352584839,-0.0827668309211731,0.07212457060813904,0.0,0.0,0.0,-10.380953788757324,-0.15231360495090485,9.61895751953125,-1.0827677249908447,1.1088743209838867,0.5245991945266724,0.0,0.0,0.0,0.05454670637845993,-0.19563935697078705,9.108216285705566,0.019162319600582123,-0.06671029329299927,0.048198308795690536,0.0,0.0,0.0,-0.030745793133974075,0.1354336440563202,9.512276649475098,0.04946768283843994,0.05382132902741432,-0.0017020425293594599,0.0,0.0,0.0
0.008,0.0,0.0,0.0,0.0,0.0,0.0,0.0,0.0,0.0,0.0,0.0,0.0,10.504764556884766,-0.16235770285129547,-192.9791259765625,9472.5947265625,24443.96875,-321.62554931640625,0.0,0.0,0.0,0.0,0.0,0.0,0.0048828125,0.0054931640625,0.0067138671875,0.00244140625,0.00335693359375,0.00457763671875,0.0,0.0,0.0,0.0,0.0,0.0,0.0,0.0,0.0,0.0,0.0,0.0,0.0,0.0,0.0,0.0,0.0,0.0,0.0,0.0,0.0,0.0,0.0,0.0,0.0,0.0,0.0,0.0,0.0,0.0,0.0,0.0,0.0,0.0,0.0,0.0,0.0,0.0,0.0,0.0,0.0,0.0,0.0,0.0,0.0,0.0,0.0,0.0,0.0,0.0,0.0,0.0,0.0,0.0,0.0,0.0,0.0,0.0,0.0,0.0,0.0,0.0,0.0,0.0,0.00026334033464081585,-1.3610372661787551e-05,-5.460796455736272e-05,-4.645080116461031e-05,0.0,0.0,0.0,0.0,0.0003868284693453461,-0.00027502933517098427,-0.0003651508304756135,-1.9863538909703493e-05,0.0002563890302553773,-1.2181085367046762e-06,-0.0008972457726486027,0.000750476261600852,-0.16025441884994507,0.1321406364440918,9.327024459838867,-0.31434160470962524,0.11033008992671967,0.027669865638017654,0.0,0.0,0.0,0.08272089064121246,-0.17616716027259827,9.28801441192627,0.2762041687965393,0.03770745173096657,0.016597630456089973,0.0,0.0,0.0,0.10793203115463257,-7.968361854553223,9.480833053588867,1.1404005289077759,-0.5683774352073669,0.005710728000849485,0.0,0.0,0.0,-0.2106766402721405,-9.37938117980957,4.407375812530518,0.8715839385986328,-0.531755268573761,0.1330925077199936,0.0,0.0,0.0,0.0,0.0,0.0,0.0,0.0,0.0,0.0,0.0,0.0,0.0,0.0,0.0,0.0,0.0,0.0,0.0,0.0,0.0,0.0,0.0,0.0,0.0,0.0,0.0,0.0,0.0,0.0,0.0,0.0,0.0,0.0,0.0,0.0,0.0,0.0,0.0,-0.20627625286579132,0.05663856863975525,9.48808765411377,-0.1886071264743805,-0.003477548249065876,-0.032990992069244385,0.0,0.0,0.0,0.1750791221857071,-0.06847654283046722,9.486456871032715,0.06750577688217163,0.2769835293292999,-0.007210389710962772,0.0,0.0,0.0,0.021717127412557602,-0.14394231140613556,9.49453353881836,-0.1779191941022873,0.10513796657323837,0.04819384217262268,0.0,0.0,0.0,7.334150791168213,-2.704009771347046,10.21259880065918,-1.6454272270202637,-0.6550623178482056,0.5426098108291626,0.0,0.0,0.0,-0.2185737043619156,-0.010568339377641678,9.523638725280762,0.19912037253379822,-0.08283491432666779,0.07219265401363373,0.0,0.0,0.0,-10.335495948791504,-0.13783559203147888,9.603141784667969,-1.081097960472107,1.0213158130645752,0.5430940985679626,0.0,0.0,0.0,0.05749712139368057,-0.19438987970352173,9.106684684753418,0.01907273754477501,-0.0665060505270958,0.04804601892828941,0.0,0.0,0.0,-0.03211620822548866,0.13515150547027588,9.510882377624512,0.049688052386045456,0.05360633507370949,-0.0018435799283906817,0.0,0.0,0.0
0.009,0.0,0.0,0.0,0.0,0.0,0.0,0.0,0.0,0.0,0.0,0.0,0.0,10.657352447509766,-0.009769812226295471,-193.8946533203125,9564.1474609375,24566.0390625,-367.40191650390625,0.0,0.0,0.0,0.0,0.0,0.0,0.00457763671875,0.0048828125,0.00732421875,0.00244140625,0.00335693359375,0.003662109375,0.0,0.0,0.0,0.0,0.0,0.0,0.0,0.0,0.0,0.0,0.0,0.0,0.0,0.0,0.0,0.0,0.0,0.0,0.0,0.0,0.0,0.0,0.0,0.0,0.0,0.0,0.0,0.0,0.0,0.0,0.0,0.0,0.0,0.0,0.0,0.0,0.0,0.0,0.0,0.0,0.0,0.0,0.0,0.0,0.0,0.0,0.0,0.0,0.0,0.0,0.0,0.0,0.0,0.0,0.0,0.0,0.0,0.0,0.0,0.0,0.0,0.0,0.0,0.0,0.00027723077801056206,-1.5192168575595133e-05,-4.576912397169508e-05,-4.542837996268645e-05,0.0,0.0,0.0,0.0,0.00032875320175662637,-0.00020304133067838848,-0.0002601004671305418,-3.047352220164612e-05,0.00018980499589815736,1.6081185094662942e-07,-0.0008399490616284311,0.0007119286456145346,-0.16006901860237122,0.13089114427566528,9.327330589294434,-0.3141266107559204,0.11046624928712845,0.027669865638017654,0.0,0.0,0.0,0.08503446727991104,-0.17828725278377533,9.289006233215332,0.275921106338501,0.037497833371162415,0.01631993055343628,0.0,0.0,0.0,0.09481634944677353,-7.964282989501953,9.47712516784668,1.1315571069717407,-0.5709519982337952,0.0052413176745176315,0.0,0.0,0.0,-0.1991489678621292,-9.370392799377441,4.438589096069336,0.8570986390113831,-0.5328642725944519,0.13021156191825867,0.0,0.0,0.0,0.0,0.0,0.0,0.0,0.0,0.0,0.0,0.0,0.0,0.0,0.0,0.0,0.0,0.0,0.0,0.0,0.0,0.0,0.0,0.0,0.0,0.0,0.0,0.0,0.0,0.0,0.0,0.0,0.0,0.0,0.0,0.0,0.0,0.0,0.0,0.0,-0.2066793143749237,0.05399448052048683,9.488248825073242,-0.18854442238807678,-0.003336010966449976,-0.032990992069244385,0.0,0.0,0.0,0.17161279916763306,-0.07005654275417328,9.483933448791504,0.06729615479707718,0.27684199810028076,-0.0072730956599116325,0.0,0.0,0.0,0.020443454384803772,-0.14396649599075317,9.494461059570312,-0.17793531715869904,0.10528487712144852,0.04813651368021965,0.0,0.0,0.0,7.3503618240356445,-2.730869770050049,10.178120613098145,-1.6491268873214722,-0.6058588624000549,0.534966766834259,0.0,0.0,0.0,-0.21991993486881256,-0.009907317347824574,9.523969650268555,0.19904692471027374,-0.08290299028158188,0.07226072996854782,0.0,0.0,0.0,-10.290038108825684,-0.12335757166147232,9.587325096130371,-1.0794281959533691,0.9337574243545532,0.5615890026092529,0.0,0.0,0.0,0.060447532683610916,-0.19314038753509521,9.10515308380127,0.018983155488967896,-0.06630180776119232,0.04789373278617859,0.0,0.0,0.0,-0.03348662331700325,0.13486936688423157,9.50948715209961,0.04990842193365097,0.053391341120004654,-0.0019851173274219036,0.0,0.0,0.0
0.009,0.0,0.0,0.0,0.0,0.0,0.0,0.0,0.0,0.0,0.0,0.0,0.0,10.809940338134766,0.14281807839870453,-194.8101806640625,9655.7001953125,24688.109375,-413.17828369140625,0.0,0.0,0.0,0.0,0.0,0.0,0.00457763671875,0.0048828125,0.00732421875,0.00244140625,0.00335693359375,0.003662109375,0.0,0.0,0.0,0.0,0.0,0.0,0.0,0.0,0.0,0.0,0.0,0.0,0.0,0.0,0.0,0.0,0.0,0.0,0.0,0.0,0.0,0.0,0.0,0.0,0.0,0.0,0.0,0.0,0.0,0.0,0.0,0.0,0.0,0.0,0.0,0.0,0.0,0.0,0.0,0.0,0.0,0.0,0.0,0.0,0.0,0.0,0.0,0.0,0.0,0.0,0.0,0.0,0.0,0.0,0.0,0.0,0.0,0.0,0.0,0.0,0.0,0.0,0.0,0.0,0.00028272473718971014,-1.6094068996608257e-05,-2.7307376512908377e-05,-4.20601645600982e-05,0.0,0.0,0.0,0.0,0.0002586832852102816,-0.000124345941003412,-0.00014385516988113523,-3.739909880096093e-05,0.00011451235332060605,-2.0716499875561567e-06,-0.0007548106950707734,0.0006468566716648638,-0.1609557569026947,0.13078634440898895,9.327258110046387,-0.31405046582221985,0.11045818775892258,0.027661804109811783,0.0,0.0,0.0,0.08616707473993301,-0.17800107598304749,9.289417266845703,0.2758530378341675,0.03746648132801056,0.016299327835440636,0.0,0.0,0.0,0.08466318994760513,-7.9566168785095215,9.474449157714844,1.123146414756775,-0.5748621821403503,0.004300715401768684,0.0,0.0,0.0,-0.1856181025505066,-9.360772132873535,4.462446212768555,0.8438845872879028,-0.5323697924613953,0.1271926760673523,0.0,0.0,0.0,0.0,0.0,0.0,0.0,0.0,0.0,0.0,0.0,0.0,0.0,0.0,0.0,0.0,0.0,0.0,0.0,0.0,0.0,0.0,0.0,0.0,0.0,0.0,0.0,0.0,0.0,0.0,0.0,0.0,0.0,0.0,0.0,0.0,0.0,0.0,0.0,-0.20740079879760742,0.0527208037674427,9.487088203430176,-0.1885838359594345,-0.0032992830965667963,-0.032988306134939194,0.0,0.0,0.0,0.17104850709438324,-0.07032659649848938,9.483522415161133,0.06726480275392532,0.2768133282661438,-0.007228305097669363,0.0,0.0,0.0,0.02017340436577797,-0.14415594935417175,9.493953704833984,-0.1780562549829483,0.10536102205514908,0.04822072014212608,0.0,0.0,0.0,7.332727432250977,-2.7488908767700195,10.151410102844238,-1.6509991884231567,-0.5493923425674438,0.5300442576408386,0.0,0.0,0.0,-0.22069784998893738,-0.009613081812858582,9.52412223815918,0.1990101933479309,-0.08290299028158188,0.07225266844034195,0.0,0.0,0.0,-10.20467758178711,-0.11543735861778259,9.566051483154297,-1.0849132537841797,0.8493756651878357,0.5736949443817139,0.0,0.0,0.0,0.06173330172896385,-0.1930476874113083,9.105249404907227,0.018836241215467453,-0.0663071796298027,0.04777817055583,0.0,0.0,0.0,-0.03453861549496651,0.1349741667509079,9.508281707763672,0.05001054331660271,0.05332057178020477,-0.0020245325285941362,0.0,0.0,0.0
0.009,0.0,0.0,0.0,0.0,0.0,0.0,0.0,0.0,0.0,0.0,0.0,0.0,10.809940338134766,0.4479938745498657,-194.1998291015625,9472.5947265625,24688.109375,-275.8492126464844,0.0,0.0,0.0,0.0,0.0,0.0,0.00457763671875,0.0048828125,0.00762939453125,0.00244140625,0.00335693359375,0.00396728515625,0.0,0.0,0.0,0.0,0.0,0.0,0.0,0.0,0.0,0.0,0.0,0.0,0.0,0.0,0.0,0.0,0.0,0.0,0.0,0.0,0.0,0.0,0.0,0.0,0.0,0.0,0.0,0.0,0.0,0.0,0.0,0.0,0.0,0.0,0.0,0.0,0.0,0.0,0.0,0.0,0.0,0.0,0.0,0.0,0.0,0.0,0.0,0.0,0.0,0.0,0.0,0.0,0.0,0.0,0.0,0.0,0.0,0.0,0.0,0.0,0.0,0.0,0.0,0.0,0.00027687184046953917,-1.629609687370248e-05,-1.230521775141824e-05,-3.807588655035943e-05,0.0,0.0,0.0,0.0,0.0001791799149941653,-4.012058343505487e-05,-1.8599203031044453e-05,-3.8702943129464984e-05,2.8667105652857572e-05,-3.3801429708546493e-06,-0.0006428376655094326,0.0005532356444746256,-0.16291464865207672,0.131826251745224,9.326807022094727,-0.31411316990852356,0.11030590534210205,0.02764567919075489,0.0,0.0,0.0,0.08611871302127838,-0.17530862987041473,9.2892484664917,0.27599993348121643,0.037613395601511,0.016535820439457893,0.0,0.0,0.0,0.07747254520654678,-7.945363521575928,9.472804069519043,1.1151683330535889,-0.5801080465316772,0.002888921182602644,0.0,0.0,0.0,-0.17008401453495026,-9.350518226623535,4.478947639465332,0.8319416642189026,-0.5302718281745911,0.12403585016727448,0.0,0.0,0.0,0.0,0.0,0.0,0.0,0.0,0.0,0.0,0.0,0.0,0.0,0.0,0.0,0.0,0.0,0.0,0.0,0.0,0.0,0.0,0.0,0.0,0.0,0.0,0.0,0.0,0.0,0.0,0.0,0.0,0.0,0.0,0.0,0.0,0.0,0.0,0.0,-0.20844070613384247,0.052817538380622864,9.48460578918457,-0.18872538208961487,-0.0033673648722469807,-0.03298293054103851,0.0,0.0,0.0,0.17338627576828003,-0.06928669661283493,9.485222816467285,0.06741171330213547,0.27689751982688904,-0.0070760175585746765,0.0,0.0,0.0,0.020906975492835045,-0.1445106416940689,9.493010520935059,-0.1782819926738739,0.10536639392375946,0.04844646155834198,0.0,0.0,0.0,7.281248569488525,-2.7580726146698,10.132466316223145,-1.6510440111160278,-0.48566287755966187,0.5278424024581909,0.0,0.0,0.0,-0.22090744972229004,-0.009685630910098553,9.52409839630127,0.1990101933479309,-0.08283490687608719,0.07216846197843552,0.0,0.0,0.0,-10.079414367675781,-0.1140749379992485,9.539320945739746,-1.0975531339645386,0.7681707143783569,0.5794119834899902,0.0,0.0,0.0,0.06135442480444908,-0.19411176443099976,9.106974601745605,0.01863199658691883,-0.06652217358350754,0.04769933968782425,0.0,0.0,0.0,-0.03527218848466873,0.13546590507030487,9.5072660446167,0.049994420260190964,0.05339403077960014,-0.0019618256483227015,0.0,0.0,0.0
0.010,0.0,0.0,0.0,0.0,0.0,0.0,0.0,0.0,0.0,0.0,0.0,0.0,10.809940338134766,0.7531696557998657,-193.5894775390625,9289.4892578125,24688.109375,-138.5201416015625,0.0,0.0,0.0,0.0,0.0,0.0,0.00457763671875,0.0048828125,0.00762939453125,0.00244140625,0.00335693359375,0.00396728515625,0.0,0.0,0.0,0.0,0.0,0.0,0.0,0.0,0.0,0.0,0.0,0.0,0.0,0.0,0.0,0.0,0.0,0.0,0.0,0.0,0.0,0.0,0.0,0.0,0.0,0.0,0.0,0.0,0.0,0.0,0.0,0.0,0.0,0.0,0.0,0.0,0.0,0.0,0.0,0.0,0.0,0.0,0.0,0.0,0.0,0.0,0.0,0.0,0.0,0.0,0.0,0.0,0.0,0.0,0.0,0.0,0.0,0.0,0.0,0.0,0.0,0.0,0.0,0.0,0.0002584081667009741,-1.5993757187970914e-05,-7.374988399533322e-06,-3.2933159673120826e-05,0.0,0.0,0.0,0.0,9.33363480726257e-05,4.572213219944388e-05,0.0001097957938327454,-3.531582115101628e-05,-6.399959966074675e-05,-7.336991529882653e-07,-0.0005083386786282063,0.0004369366797618568,-0.16487352550029755,0.13286614418029785,9.32635498046875,-0.31417587399482727,0.11015361547470093,0.027629556134343147,0.0,0.0,0.0,0.08607034385204315,-0.1726161688566208,9.289078712463379,0.27614685893058777,0.037760306149721146,0.01677231304347515,0.0,0.0,0.0,0.07028190046548843,-7.934109687805176,9.471159934997559,1.1071902513504028,-0.5853539109230042,0.0014771270798519254,0.0,0.0,0.0,-0.15454992651939392,-9.340264320373535,4.495449066162109,0.8199987411499023,-0.5281738042831421,0.12087901681661606,0.0,0.0,0.0,0.0,0.0,0.0,0.0,0.0,0.0,0.0,0.0,0.0,0.0,0.0,0.0,0.0,0.0,0.0,0.0,0.0,0.0,0.0,0.0,0.0,0.0,0.0,0.0,0.0,0.0,0.0,0.0,0.0,0.0,0.0,0.0,0.0,0.0,0.0,0.0,-0.20948059856891632,0.052914269268512726,9.482122421264648,-0.18886691331863403,-0.0034354464150965214,-0.03297755494713783,0.0,0.0,0.0,0.17572402954101562,-0.06824679672718048,9.486924171447754,0.06755863130092621,0.27698174118995667,-0.006923730485141277,0.0,0.0,0.0,0.02164054661989212,-0.14486533403396606,9.492067337036133,-0.1785077452659607,0.10537177324295044,0.048672206699848175,0.0,0.0,0.0,7.229769706726074,-2.76725435256958,10.11352252960205,-1.6510887145996094,-0.4219333827495575,0.5256404876708984,0.0,0.0,0.0,-0.2211170345544815,-0.009758180007338524,9.52407455444336,0.1990101933479309,-0.0827668309211731,0.07208425551652908,0.0,0.0,0.0,-9.954150199890137,-0.11271252483129501,9.512589454650879,-1.110192894935608,0.6869657635688782,0.5851290822029114,0.0,0.0,0.0,0.06097554787993431,-0.19517584145069122,9.108699798583984,0.01842775195837021,-0.06673716753721237,0.0476205088198185,0.0,0.0,0.0,-0.03600575774908066,0.13595764338970184,9.506250381469727,0.04997829347848892,0.053467486053705215,-0.0018991186516359448,0.0,0.0,0.0
0.011,0.0,0.0,0.0,0.0,0.0,0.0,0.0,0.0,0.0,0.0,0.0,0.0,10.809940338134766,0.14281809329986572,-194.1998291015625,9289.4892578125,24627.07421875,-321.6255798339844,0.0,0.0,0.0,0.0,0.0,0.0,0.00457763671875,0.0054931640625,0.0079345703125,0.00244140625,0.003662109375,0.0042724609375,0.0,0.0,0.0,0.0,0.0,0.0,0.0,0.0,0.0,0.0,0.0,0.0,0.0,0.0,0.0,0.0,0.0,0.0,0.0,0.0,0.0,0.0,0.0,0.0,0.0,0.0,0.0,0.0,0.0,0.0,0.0,0.0,0.0,0.0,0.0,0.0,0.0,0.0,0.0,0.0,0.0,0.0,0.0,0.0,0.0,0.0,0.0,0.0,0.0,0.0,0.0,0.0,0.0,0.0,0.0,0.0,0.0,0.0,0.0,0.0,0.0,0.0,0.0,0.0,0.00022702735441271216,-1.5063189493957907e-05,-1.0356681741541252e-05,-2.4315308110089973e-05,0.0,0.0,0.0,0.0,-1.705047907307744e-07,0.00013014063006266952,0.00023255168343894184,-2.9107186492183246e-05,-0.00015761751274112612,2.5799636205192655e-06,-0.0003542314807418734,0.0003036038251593709,-0.16683241724967957,0.1339060515165329,9.32590389251709,-0.31423860788345337,0.1100013256072998,0.027613431215286255,0.0,0.0,0.0,0.08602198213338852,-0.16992370784282684,9.288909912109375,0.2762937545776367,0.03790722042322159,0.017008807510137558,0.0,0.0,0.0,0.06309125572443008,-7.922856330871582,9.469515800476074,1.0992121696472168,-0.590599775314331,6.53329334454611e-05,0.0,0.0,0.0,-0.13901583850383759,-9.330010414123535,4.5119500160217285,0.8080558776855469,-0.5260758399963379,0.11772218346595764,0.0,0.0,0.0,0.0,0.0,0.0,0.0,0.0,0.0,0.0,0.0,0.0,0.0,0.0,0.0,0.0,0.0,0.0,0.0,0.0,0.0,0.0,0.0,0.0,0.0,0.0,0.0,0.0,0.0,0.0,0.0,0.0,0.0,0.0,0.0,0.0,0.0,0.0,0.0,-0.21052050590515137,0.05301100015640259,9.479640007019043,-0.1890084594488144,-0.003503527957946062,-0.03297217935323715,0.0,0.0,0.0,0.17806179821491241,-0.06720689684152603,9.488624572753906,0.06770554184913635,0.2770659327507019,-0.006771442946046591,0.0,0.0,0.0,0.022374117746949196,-0.14522002637386322,9.491124153137207,-0.1787334829568863,0.10537714511156082,0.04889795184135437,0.0,0.0,0.0,7.178290843963623,-2.7764360904693604,10.09457778930664,-1.6511335372924805,-0.3582038879394531,0.523438572883606,0.0,0.0,0.0,-0.22132663428783417,-0.009830729104578495,9.524049758911133,0.1990101933479309,-0.0826987475156784,0.07200005650520325,0.0,0.0,0.0,-9.828886985778809,-0.11135010421276093,9.485857963562012,-1.1228327751159668,0.6057608127593994,0.5908461213111877,0.0,0.0,0.0,0.06059667095541954,-0.19623993337154388,9.110424995422363,0.018223507329821587,-0.0669521614909172,0.047541677951812744,0.0,0.0,0.0,-0.03673933073878288,0.13644939661026,9.505234718322754,0.04996217042207718,0.05354094132781029,-0.00183641177136451,0.0,0.0,0.0
0.011,0.0,0.0,0.0,0.0,0.0,0.0,0.0,0.0,0.0,0.0,0.0,0.0,10.809940338134766,-0.4675334692001343,-194.8101806640625,9289.4892578125,24566.0390625,-504.7310485839844,0.0,0.0,0.0,0.0,0.0,0.0,0.00457763671875,0.0054931640625,0.0079345703125,0.00244140625,0.003662109375,0.0042724609375,0.0,0.0,0.0,0.0,0.0,0.0,0.0,0.0,0.0,0.0,0.0,0.0,0.0,0.0,0.0,0.0,0.0,0.0,0.0,0.0,0.0,0.0,0.0,0.0,0.0,0.0,0.0,0.0,0.0,0.0,0.0,0.0,0.0,0.0,0.0,0.0,0.0,0.0,0.0,0.0,0.0,0.0,0.0,0.0,0.0,0.0,0.0,0.0,0.0,0.0,0.0,0.0,0.0,0.0,0.0,0.0,0.0,0.0,0.0,0.0,0.0,0.0,0.0,0.0,0.00018349921447224915,-1.3362711797526572e-05,-1.3136814231984317e-05,-1.0718219527916517e-05,0.0,0.0,0.0,0.0,-0.00010125790140591562,0.00021293267491273582,0.00034678264637477696,-2.1715055481763557e-05,-0.00024479872081428766,3.6738128983415663e-06,-0.00017971287888940424,0.0001551745954202488,-0.1687912940979004,0.13494594395160675,9.32545280456543,-0.3143013119697571,0.10984904319047928,0.027597306296229362,0.0,0.0,0.0,0.08597361296415329,-0.1672312617301941,9.288740158081055,0.27644068002700806,0.03805413469672203,0.017245300114154816,0.0,0.0,0.0,0.055900607258081436,-7.911602973937988,9.467870712280273,1.0912342071533203,-0.5958455801010132,-0.0013464611256495118,0.0,0.0,0.0,-0.12348175793886185,-9.319756507873535,4.528451442718506,0.7961129546165466,-0.5239778757095337,0.11456535756587982,0.0,0.0,0.0,0.0,0.0,0.0,0.0,0.0,0.0,0.0,0.0,0.0,0.0,0.0,0.0,0.0,0.0,0.0,0.0,0.0,0.0,0.0,0.0,0.0,0.0,0.0,0.0,0.0,0.0,0.0,0.0,0.0,0.0,0.0,0.0,0.0,0.0,0.0,0.0,-0.21156039834022522,0.05310773476958275,9.477157592773438,-0.18914999067783356,-0.0035716097336262465,-0.03296680748462677,0.0,0.0,0.0,0.180399551987648,-0.06616699695587158,9.490325927734375,0.0678524523973465,0.27715015411376953,-0.006619155872613192,0.0,0.0,0.0,0.02310769073665142,-0.14557471871376038,9.490180969238281,-0.1789592206478119,0.1053825169801712,0.04912369325757027,0.0,0.0,0.0,7.126811981201172,-2.7856180667877197,10.075634002685547,-1.6511783599853516,-0.29447439312934875,0.5212367177009583,0.0,0.0,0.0,-0.22153623402118683,-0.009903278201818466,9.524025917053223,0.1990101933479309,-0.08263066411018372,0.07191585004329681,0.0,0.0,0.0,-9.70362377166748,-0.10998768359422684,9.459127426147461,-1.1354725360870361,0.5245558619499207,0.5965631604194641,0.0,0.0,0.0,0.06021779403090477,-0.19730401039123535,9.112150192260742,0.018019262701272964,-0.06716715544462204,0.04746284708380699,0.0,0.0,0.0,-0.03747290000319481,0.13694113492965698,9.504219055175781,0.049946047365665436,0.05361440032720566,-0.0017737047746777534,0.0,0.0,0.0
0.011,0.0,0.0,0.0,0.0,0.0,0.0,0.0,0.0,0.0,0.0,0.0,0.0,10.809940338134766,-0.6201213598251343,-194.8101806640625,9289.4892578125,24627.07421875,-504.7310485839844,0.0,0.0,0.0,0.0,0.0,0.0,0.00518798828125,0.00579833984375,0.00701904296875,0.00152587890625,0.0030517578125,0.0042724609375,0.0,0.0,0.0,0.0,0.0,0.0,0.0,0.0,0.0,0.0,0.0,0.0,0.0,0.0,0.0,0.0,0.0,0.0,0.0,0.0,0.0,0.0,0.0,0.0,0.0,0.0,0.0,0.0,0.0,0.0,0.0,0.0,0.0,0.0,0.0,0.0,0.0,0.0,0.0,0.0,0.0,0.0,0.0,0.0,0.0,0.0,0.0,0.0,0.0,0.0,0.0,0.0,0.0,0.0,0.0,0.0,0.0,0.0,0.0,0.0,0.0,0.0,0.0,0.0,0.0001331594685325399,-1.114412589231506e-05,-1.3320332072908059e-05,5.9626954680425115e-06,0.0,0.0,0.0,0.0,-0.00020064582349732518,0.00029011486913077533,0.00045140451402403414,-1.4026476492290385e-05,-0.0003178256447426975,3.313094566692598e-06,6.228656275197864e-06,1.569307642057538e-06,-0.1707501858472824,0.1359858363866806,9.325000762939453,-0.3143640160560608,0.10969675332307816,0.02758118323981762,0.0,0.0,0.0,0.08592524379491806,-0.16453880071640015,9.28857135772705,0.2765876054763794,0.038201045244932175,0.017481792718172073,0.0,0.0,0.0,0.04870996251702309,-7.9003496170043945,9.466226577758789,1.0832561254501343,-0.6010914444923401,-0.0027582552284002304,0.0,0.0,0.0,-0.10794767737388611,-9.309502601623535,4.544952869415283,0.7841700315475464,-0.5218799114227295,0.1114085242152214,0.0,0.0,0.0,0.0,0.0,0.0,0.0,0.0,0.0,0.0,0.0,0.0,0.0,0.0,0.0,0.0,0.0,0.0,0.0,0.0,0.0,0.0,0.0,0.0,0.0,0.0,0.0,0.0,0.0,0.0,0.0,0.0,0.0,0.0,0.0,0.0,0.0,0.0,0.0,-0.21260029077529907,0.05320446565747261,9.474674224853516,-0.18929152190685272,-0.003639691276475787,-0.03296143189072609,0.0,0.0,0.0,0.1827373206615448,-0.06512709707021713,9.492027282714844,0.06799936294555664,0.27723434567451477,-0.006466868333518505,0.0,0.0,0.0,0.023841261863708496,-0.14592942595481873,9.489237785339355,-0.17918497323989868,0.10538789629936218,0.04934943839907646,0.0,0.0,0.0,7.075333118438721,-2.7947998046875,10.056690216064453,-1.6512231826782227,-0.2307448834180832,0.5190348029136658,0.0,0.0,0.0,-0.2217458337545395,-0.009975827299058437,9.524002075195312,0.1990101933479309,-0.08256258815526962,0.07183164358139038,0.0,0.0,0.0,-9.578360557556152,-0.10862527042627335,9.432395935058594,-1.148112416267395,0.4433509409427643,0.6022802591323853,0.0,0.0,0.0,0.05983891710639,-0.19836808741092682,9.113875389099121,0.017815018072724342,-0.06738214939832687,0.04738401621580124,0.0,0.0,0.0,-0.038206472992897034,0.13743287324905396,9.503203392028809,0.049929920583963394,0.05368785560131073,-0.0017109978944063187,0.0,0.0,0.0
0.012,0.0,0.0,0.0,0.0,0.0,0.0,0.0,0.0,0.0,0.0,0.0,0.0,10.809940338134766,-0.7727092504501343,-194.8101806640625,9289.4892578125,24688.109375,-504.7310485839844,0.0,0.0,0.0,0.0,0.0,0.0,0.00518798828125,0.00579833984375,0.00701904296875,0.00152587890625,0.0030517578125,0.0042724609375,0.0,0.0,0.0,0.0,0.0,0.0,0.0,0.0,0.0,0.0,0.0,0.0,0.0,0.0,0.0,0.0,0.0,0.0,0.0,0.0,0.0,0.0,0.0,0.0,0.0,0.0,0.0,0.0,0.0,0.0,0.0,0.0,0.0,0.0,0.0,0.0,0.0,0.0,0.0,0.0,0.0,0.0,0.0,0.0,0.0,0.0,0.0,0.0,0.0,0.0,0.0,0.0,0.0,0.0,0.0,0.0,0.0,0.0,0.0,0.0,0.0,0.0,0.0,0.0,8.014346531126648e-05,-8.534236258128658e-06,-1.7996069800574332e-05,2.1812298655277118e-05,0.0,0.0,0.0,0.0,-0.0002890737378038466,0.00035227552871219814,0.0005404471885412931,-5.640004019369371e-06,-0.0003752460179384798,1.3182304883230245e-06,0.00019249445176683366,-0.00014725928485859185,-0.17270906269550323,0.13702574372291565,9.324549674987793,-0.3144267201423645,0.10954446345567703,0.027565058320760727,0.0,0.0,0.0,0.08587688207626343,-0.1618463397026062,9.28840160369873,0.27673450112342834,0.03834795951843262,0.01771828532218933,0.0,0.0,0.0,0.04151931777596474,-7.889096260070801,9.464582443237305,1.0752780437469482,-0.606337308883667,-0.004170049447566271,0.0,0.0,0.0,-0.09241358935832977,-9.299248695373535,4.5614542961120605,0.7722271680831909,-0.5197819471359253,0.10825169086456299,0.0,0.0,0.0,0.0,0.0,0.0,0.0,0.0,0.0,0.0,0.0,0.0,0.0,0.0,0.0,0.0,0.0,0.0,0.0,0.0,0.0,0.0,0.0,0.0,0.0,0.0,0.0,0.0,0.0,0.0,0.0,0.0,0.0,0.0,0.0,0.0,0.0,0.0,0.0,-0.21364019811153412,0.05330119654536247,9.47219181060791,-0.18943306803703308,-0.003707772819325328,-0.03295605629682541,0.0,0.0,0.0,0.1850750744342804,-0.06408719718456268,9.493727684020996,0.06814627349376678,0.2773185670375824,-0.006314581260085106,0.0,0.0,0.0,0.02457483299076557,-0.14628411829471588,9.48829460144043,-0.17941071093082428,0.10539326816797256,0.04957518354058266,0.0,0.0,0.0,7.0238542556762695,-2.8039815425872803,10.03774642944336,-1.6512680053710938,-0.16701538860797882,0.5168328881263733,0.0,0.0,0.0,-0.22195543348789215,-0.010048376396298409,9.523977279663086,0.1990101933479309,-0.08249450474977493,0.07174743711948395,0.0,0.0,0.0,-9.453097343444824,-0.10726284980773926,9.405664443969727,-1.1607521772384644,0.3621459901332855,0.6079972982406616,0.0,0.0,0.0,0.05946004018187523,-0.19943217933177948,9.1156005859375,0.01761077344417572,-0.06759714335203171,0.047305185347795486,0.0,0.0,0.0,-0.03894004225730896,0.13792461156845093,9.502187728881836,0.04991379752755165,0.0537613108754158,-0.0016482910141348839,0.0,0.0,0.0
0.013,0.0,0.0,0.0,0.0,0.0,0.0,0.0,0.0,0.0,0.0,0.0,0.0,10.809940338134766,-0.4675334692001343,-194.5050048828125,9289.4892578125,24627.07421875,-458.9546813964844,0.0,0.0,0.0,0.0,0.0,0.0,0.00457763671875,0.00457763671875,0.00701904296875,0.00213623046875,0.0030517578125,0.00457763671875,0.0,0.0,0.0,0.0,0.0,0.0,0.0,0.0,0.0,0.0,0.0,0.0,0.0,0.0,0.0,0.0,0.0,0.0,0.0,0.0,0.0,0.0,0.0,0.0,0.0,0.0,0.0,0.0,0.0,0.0,0.0,0.0,0.0,0.0,0.0,0.0,0.0,0.0,0.0,0.0,0.0,0.0,0.0,0.0,0.0,0.0,0.0,0.0,0.0,0.0,0.0,0.0,0.0,0.0,0.0,0.0,0.0,0.0,0.0,0.0,0.0,0.0,0.0,0.0,2.656864671735093e-05,-5.545036401599646e-06,-2.9091061151120812e-05,3.221094812033698e-05,0.0,0.0,0.0,0.0,-0.0003623290394898504,0.00039497436955571175,0.0006083790212869644,2.112280981236836e-06,-0.0004198636452201754,-2.28268299906631e-06,0.00037153917946852744,-0.0002876155776903033,-0.17466795444488525,0.1380656361579895,9.324097633361816,-0.3144894242286682,0.1093921810388565,0.027548935264348984,0.0,0.0,0.0,0.0858285129070282,-0.15915389358997345,9.288232803344727,0.2768814265727997,0.03849487006664276,0.01795477792620659,0.0,0.0,0.0,0.03432867303490639,-7.877842426300049,9.462937355041504,1.0672999620437622,-0.6115831732749939,-0.005581843666732311,0.0,0.0,0.0,-0.07687950879335403,-9.288993835449219,4.577955722808838,0.7602842450141907,-0.5176839232444763,0.10509485751390457,0.0,0.0,0.0,0.0,0.0,0.0,0.0,0.0,0.0,0.0,0.0,0.0,0.0,0.0,0.0,0.0,0.0,0.0,0.0,0.0,0.0,0.0,0.0,0.0,0.0,0.0,0.0,0.0,0.0,0.0,0.0,0.0,0.0,0.0,0.0,0.0,0.0,0.0,0.0,-0.21468009054660797,0.05339793115854263,9.469708442687988,-0.18957459926605225,-0.0037758545950055122,-0.03295068070292473,0.0,0.0,0.0,0.18741284310817719,-0.06304729729890823,9.495429039001465,0.06829319149255753,0.27740275859832764,-0.006162293720990419,0.0,0.0,0.0,0.025308404117822647,-0.14663881063461304,9.487351417541504,-0.17963646352291107,0.10539864748716354,0.04980092495679855,0.0,0.0,0.0,6.972375392913818,-2.8131632804870605,10.018802642822266,-1.6513127088546753,-0.10328590124845505,0.5146310329437256,0.0,0.0,0.0,-0.22216501832008362,-0.01012092549353838,9.523953437805176,0.1990101933479309,-0.08242642134428024,0.07166323065757751,0.0,0.0,0.0,-9.32783317565918,-0.10590043663978577,9.378933906555176,-1.1733920574188232,0.2809410095214844,0.613714337348938,0.0,0.0,0.0,0.05908115953207016,-0.20049625635147095,9.117325782775879,0.017406528815627098,-0.06781213730573654,0.047226354479789734,0.0,0.0,0.0,-0.039673615247011185,0.1384163498878479,9.501172065734863,0.04989767447113991,0.05383476987481117,-0.0015855840174481273,0.0,0.0,0.0
0.013,0.0,0.0,0.0,0.0,0.0,0.0,0.0,0.0,0.0,0.0,0.0,0.0,10.809940338134766,-0.16235770285129547,-194.1998291015625,9289.4892578125,24566.0390625,-413.17828369140625,0.0,0.0,0.0,0.0,0.0,0.0,0.00457763671875,0.00457763671875,0.00701904296875,0.00213623046875,0.0030517578125,0.00457763671875,0.0,0.0,0.0,0.0,0.0,0.0,0.0,0.0,0.0,0.0,0.0,0.0,0.0,0.0,0.0,0.0,0.0,0.0,0.0,0.0,0.0,0.0,0.0,0.0,0.0,0.0,0.0,0.0,0.0,0.0,0.0,0.0,0.0,0.0,0.0,0.0,0.0,0.0,0.0,0.0,0.0,0.0,0.0,0.0,0.0,0.0,0.0,0.0,0.0,0.0,0.0,0.0,0.0,0.0,0.0,0.0,0.0,0.0,0.0,0.0,0.0,0.0,0.0,0.0,-2.504142867110204e-05,-2.3666145807510475e-06,-4.057039404870011e-05,3.416938488953747e-05,0.0,0.0,0.0,0.0,-0.0004179258830845356,0.00041994417551904917,0.0006521198083646595,6.202995791682042e-06,-0.00045260932529345155,-5.3136614042159636e-06,0.0005323748337104917,-0.00041550491005182266,-0.17662683129310608,0.13910554349422455,9.323646545410156,-0.3145521283149719,0.10923989117145538,0.02753281034529209,0.0,0.0,0.0,0.08578015118837357,-0.1564614325761795,9.288063049316406,0.27702832221984863,0.038641784340143204,0.018191270530223846,0.0,0.0,0.0,0.02713802643120289,-7.866589069366455,9.46129322052002,1.0593219995498657,-0.616828978061676,-0.006993637420237064,0.0,0.0,0.0,-0.0613454207777977,-9.278739929199219,4.594457149505615,0.7483413219451904,-0.5155859589576721,0.10193803161382675,0.0,0.0,0.0,0.0,0.0,0.0,0.0,0.0,0.0,0.0,0.0,0.0,0.0,0.0,0.0,0.0,0.0,0.0,0.0,0.0,0.0,0.0,0.0,0.0,0.0,0.0,0.0,0.0,0.0,0.0,0.0,0.0,0.0,0.0,0.0,0.0,0.0,0.0,0.0,-0.21571999788284302,0.053494662046432495,9.467226028442383,-0.1897161453962326,-0.003843936137855053,-0.032945308834314346,0.0,0.0,0.0,0.18975059688091278,-0.062007397413253784,9.497129440307617,0.06844010204076767,0.27748697996139526,-0.00601000664755702,0.0,0.0,0.0,0.026041977107524872,-0.1469935029745102,9.486408233642578,-0.17986220121383667,0.10540401935577393,0.05002667009830475,0.0,0.0,0.0,6.920896530151367,-2.82234525680542,9.999858856201172,-1.6513575315475464,-0.039556410163640976,0.5124291181564331,0.0,0.0,0.0,-0.22237461805343628,-0.01019347459077835,9.523929595947266,0.1990101933479309,-0.08235834538936615,0.07157902419567108,0.0,0.0,0.0,-9.202569961547852,-0.10453801602125168,9.352202415466309,-1.1860318183898926,0.1997360736131668,0.6194314360618591,0.0,0.0,0.0,0.05870228260755539,-0.20156033337116241,9.119050979614258,0.017202284187078476,-0.06802713125944138,0.04714752361178398,0.0,0.0,0.0,-0.04040718451142311,0.13890808820724487,9.50015640258789,0.049881547689437866,0.053908225148916245,-0.0015228771371766925,0.0,0.0,0.0
0.013,0.0,0.0,0.0,0.0,0.0,0.0,0.0,0.0,0.0,0.0,0.0,0.0,10.504764556884766,-0.16235770285129547,-194.5050048828125,9381.0419921875,24627.07421875,-413.17828369140625,0.0,0.0,0.0,0.0,0.0,0.0,0.0048828125,0.00518798828125,0.00762939453125,0.00244140625,0.00335693359375,0.00457763671875,0.0,0.0,0.0,0.0,0.0,0.0,0.0,0.0,0.0,0.0,0.0,0.0,0.0,0.0,0.0,0.0,0.0,0.0,0.0,0.0,0.0,0.0,0.0,0.0,0.0,0.0,0.0,0.0,0.0,0.0,0.0,0.0,0.0,0.0,0.0,0.0,0.0,0.0,0.0,0.0,0.0,0.0,0.0,0.0,0.0,0.0,0.0,0.0,0.0,0.0,0.0,0.0,0.0,0.0,0.0,0.0,0.0,0.0,0.0,0.0,0.0,0.0,0.0,0.0,-7.675764209125191e-05,9.26215989238699e-07,-5.324435551301576e-05,3.06723486573901e-05,0.0,0.0,0.0,0.0,-0.00045752330333925784,0.0004263848823029548,0.0006694676703773439,7.766654562146869e-06,-0.00047380977775901556,-6.477349415945355e-06,0.0006680457154288888,-0.0005293762660585344,-0.1785857230424881,0.1401454359292984,9.323195457458496,-0.31461483240127563,0.10908760875463486,0.0275166854262352,0.0,0.0,0.0,0.08573178201913834,-0.15376898646354675,9.287894248962402,0.27717524766921997,0.038788698613643646,0.018427763134241104,0.0,0.0,0.0,0.01994737982749939,-7.855335712432861,9.459648132324219,1.0513439178466797,-0.6220748424530029,-0.008405432105064392,0.0,0.0,0.0,-0.04581133648753166,-9.268486022949219,4.610958576202393,0.736398458480835,-0.5134879946708679,0.09878119826316833,0.0,0.0,0.0,0.0,0.0,0.0,0.0,0.0,0.0,0.0,0.0,0.0,0.0,0.0,0.0,0.0,0.0,0.0,0.0,0.0,0.0,0.0,0.0,0.0,0.0,0.0,0.0,0.0,0.0,0.0,0.0,0.0,0.0,0.0,0.0,0.0,0.0,0.0,0.0,-0.21675989031791687,0.053591396659612656,9.464743614196777,-0.18985767662525177,-0.003912017680704594,-0.032939933240413666,0.0,0.0,0.0,0.19208836555480957,-0.060967497527599335,9.498830795288086,0.06858701258897781,0.2775711715221405,-0.005857719108462334,0.0,0.0,0.0,0.026775548234581947,-0.14734819531440735,9.485465049743652,-0.18008793890476227,0.10540939122438431,0.050252411514520645,0.0,0.0,0.0,6.869417190551758,-2.8315269947052,9.980915069580078,-1.6514023542404175,0.024173084646463394,0.5102272629737854,0.0,0.0,0.0,-0.22258421778678894,-0.010266023688018322,9.523904800415039,0.1990101933479309,-0.08229026198387146,0.07149481773376465,0.0,0.0,0.0,-9.077306747436523,-0.10317559540271759,9.325471878051758,-1.1986716985702515,0.11853111535310745,0.6251484751701355,0.0,0.0,0.0,0.05832340568304062,-0.20262442529201508,9.12077522277832,0.016998037695884705,-0.06824212521314621,0.04706869274377823,0.0,0.0,0.0,-0.041140757501125336,0.13939982652664185,9.499140739440918,0.04986542463302612,0.053981684148311615,-0.0014601701404899359,0.0,0.0,0.0
0.014,0.0,0.0,0.0,0.0,0.0,0.0,0.0,0.0,0.0,0.0,0.0,0.0,10.199588775634766,-0.16235770285129547,-194.8101806640625,9472.5947265625,24688.109375,-413.17828369140625,0.0,0.0,0.0,0.0,0.0,0.0,0.0048828125,0.00518798828125,0.00762939453125,0.00244140625,0.00335693359375,0.00457763671875,0.0,0.0,0.0,0.0,0.0,0.0,0.0,0.0,0.0,0.0,0.0,0.0,0.0,0.0,0.0,0.0,0.0,0.0,0.0,0.0,0.0,0.0,0.0,0.0,0.0,0.0,0.0,0.0,0.0,0.0,0.0,0.0,0.0,0.0,0.0,0.0,0.0,0.0,0.0,0.0,0.0,0.0,0.0,0.0,0.0,0.0,0.0,0.0,0.0,0.0,0.0,0.0,0.0,0.0,0.0,0.0,0.0,0.0,0.0,0.0,0.0,0.0,0.0,0.0,-0.00012993610289413482,4.27456234319834e-06,-6.700137601001188e-05,2.8955033485544845e-05,0.0,0.0,0.0,0.0,-0.0004856318701058626,0.00041542749386280775,0.0006662230007350445,1.0777714123832993e-05,-0.0004807116638403386,-6.86286921336432e-06,0.0007806373760104179,-0.0006290727178566158,-0.18054459989070892,0.14118534326553345,9.32274341583252,-0.31467756628990173,0.10893531888723373,0.027500562369823456,0.0,0.0,0.0,0.0856834203004837,-0.1510765254497528,9.287724494934082,0.2773221433162689,0.03893560916185379,0.01866425760090351,0.0,0.0,0.0,0.01275673508644104,-7.844082355499268,9.458003997802734,1.0433658361434937,-0.6273207068443298,-0.009817225858569145,0.0,0.0,0.0,-0.030277252197265625,-9.258232116699219,4.627459526062012,0.7244555354118347,-0.5113900303840637,0.09562436491250992,0.0,0.0,0.0,0.0,0.0,0.0,0.0,0.0,0.0,0.0,0.0,0.0,0.0,0.0,0.0,0.0,0.0,0.0,0.0,0.0,0.0,0.0,0.0,0.0,0.0,0.0,0.0,0.0,0.0,0.0,0.0,0.0,0.0,0.0,0.0,0.0,0.0,0.0,0.0,-0.21779979765415192,0.05368812754750252,9.462260246276855,-0.18999922275543213,-0.003980099223554134,-0.032934557646512985,0.0,0.0,0.0,0.19442611932754517,-0.059927597641944885,9.500531196594238,0.06873392313718796,0.27765539288520813,-0.0057054320350289345,0.0,0.0,0.0,0.027509119361639023,-0.1477028876543045,9.484521865844727,-0.18031369149684906,0.10541477054357529,0.05047815665602684,0.0,0.0,0.0,6.817938327789307,-2.8407087326049805,9.961970329284668,-1.6514471769332886,0.08790257573127747,0.5080253481864929,0.0,0.0,0.0,-0.2227938175201416,-0.010338572785258293,9.523880958557129,0.1990101933479309,-0.08222217857837677,0.07141061872243881,0.0,0.0,0.0,-8.952043533325195,-0.1018131822347641,9.29874038696289,-1.2113114595413208,0.03732616454362869,0.6308655142784119,0.0,0.0,0.0,0.05794452875852585,-0.20368850231170654,9.1225004196167,0.016793793067336082,-0.06845711916685104,0.046989861875772476,0.0,0.0,0.0,-0.04187432676553726,0.1398915797472,9.498125076293945,0.04984930157661438,0.05405513942241669,-0.001397463260218501,0.0,0.0,0.0
0.015,0.0,0.0,0.0,0.0,0.0,0.0,0.0,0.0,0.0,0.0,0.0,0.0,10.352176666259766,-0.3149455785751343,-194.1998291015625,9472.5947265625,24566.0390625,-458.9546813964844,0.0,0.0,0.0,0.0,0.0,0.0,0.0048828125,0.0048828125,0.0079345703125,0.00244140625,0.0030517578125,0.00396728515625,0.0,0.0,0.0,0.0,0.0,0.0,0.0,0.0,0.0,0.0,0.0,0.0,0.0,0.0,0.0,0.0,0.0,0.0,0.0,0.0,0.0,0.0,0.0,0.0,0.0,0.0,0.0,0.0,0.0,0.0,0.0,0.0,0.0,0.0,0.0,0.0,0.0,0.0,0.0,0.0,0.0,0.0,0.0,0.0,0.0,0.0,0.0,0.0,0.0,0.0,0.0,0.0,0.0,0.0,0.0,0.0,0.0,0.0,0.0,0.0,0.0,0.0,0.0,0.0,-0.000174893721123226,7.1606459641770925e-06,-7.24494457244873e-05,3.2366115192417055e-05,0.0,0.0,0.0,0.0,-0.0005016089999116957,0.00039513077354058623,0.0006539459573104978,1.5616718883393332e-05,-0.0004686166357714683,-8.03535476734396e-06,0.0008647975046187639,-0.0007033952861092985,-0.18250349164009094,0.1422252357006073,9.32229232788086,-0.31474027037620544,0.10878302901983261,0.027484437450766563,0.0,0.0,0.0,0.08563505113124847,-0.14838406443595886,9.287555694580078,0.27746906876564026,0.03908252343535423,0.01890075020492077,0.0,0.0,0.0,0.005566089879721403,-7.832828521728516,9.45635986328125,1.0353877544403076,-0.6325665712356567,-0.011229019612073898,0.0,0.0,0.0,-0.014743167906999588,-9.247978210449219,4.643960952758789,0.7125126123428345,-0.5092920064926147,0.0924675315618515,0.0,0.0,0.0,0.0,0.0,0.0,0.0,0.0,0.0,0.0,0.0,0.0,0.0,0.0,0.0,0.0,0.0,0.0,0.0,0.0,0.0,0.0,0.0,0.0,0.0,0.0,0.0,0.0,0.0,0.0,0.0,0.0,0.0,0.0,0.0,0.0,0.0,0.0,0.0,-0.21883969008922577,0.05378485843539238,9.45977783203125,-0.1901407539844513,-0.004048181232064962,-0.032929182052612305,0.0,0.0,0.0,0.19676388800144196,-0.058887697756290436,9.502232551574707,0.0688808411359787,0.27773958444595337,-0.005553144495934248,0.0,0.0,0.0,0.0282426904886961,-0.14805759489536285,9.4835786819458,-0.18053942918777466,0.10542014241218567,0.050703901797533035,0.0,0.0,0.0,6.7664594650268555,-2.8498904705047607,9.943026542663574,-1.6514918804168701,0.15163207054138184,0.5058234333992004,0.0,0.0,0.0,-0.22300340235233307,-0.010411121882498264,9.523857116699219,0.1990101933479309,-0.08215409517288208,0.07132641226053238,0.0,0.0,0.0,-8.82677936553955,-0.10045076161623001,9.272008895874023,-1.2239513397216797,-0.043878789991140366,0.6365825533866882,0.0,0.0,0.0,0.05756565183401108,-0.204752579331398,9.124225616455078,0.01658954843878746,-0.06867211312055588,0.046911031007766724,0.0,0.0,0.0,-0.04260789975523949,0.14038331806659698,9.497109413146973,0.04983317852020264,0.05412859469652176,-0.0013347563799470663,0.0,0.0,0.0
0.015,0.0,0.0,0.0,0.0,0.0,0.0,0.0,0.0,0.0,0.0,0.0,0.0,10.504764556884766,-0.4675334692001343,-193.5894775390625,9472.5947265625,24443.96875,-504.7310485839844,0.0,0.0,0.0,0.0,0.0,0.0,0.0048828125,0.0048828125,0.0079345703125,0.00244140625,0.0030517578125,0.00396728515625,0.0,0.0,0.0,0.0,0.0,0.0,0.0,0.0,0.0,0.0,0.0,0.0,0.0,0.0,0.0,0.0,0.0,0.0,0.0,0.0,0.0,0.0,0.0,0.0,0.0,0.0,0.0,0.0,0.0,0.0,0.0,0.0,0.0,0.0,0.0,0.0,0.0,0.0,0.0,0.0,0.0,0.0,0.0,0.0,0.0,0.0,0.0,0.0,0.0,0.0,0.0,0.0,0.0,0.0,0.0,0.0,0.0,0.0,0.0,0.0,0.0,0.0,0.0,0.0,-0.00020770607807207853,9.467219570069574e-06,-7.15785427019e-05,3.600878699216992e-05,0.0,0.0,0.0,0.0,-0.000499581394251436,0.0003670230507850647,0.0006275350460782647,2.003833287744783e-05,-0.00043841172009706497,-9.495644917478785e-06,0.0009128128876909614,-0.0007453563739545643,-0.18446236848831177,0.14326514303684235,9.321840286254883,-0.31480297446250916,0.10863074660301208,0.02746831439435482,0.0,0.0,0.0,0.08558668941259384,-0.1456916183233261,9.287385940551758,0.2776159644126892,0.03922943398356438,0.019137242808938026,0.0,0.0,0.0,-0.0016245555598288774,-7.821575164794922,9.45471477508545,1.0274097919464111,-0.6378123760223389,-0.012640814296901226,0.0,0.0,0.0,0.0007909162668511271,-9.237724304199219,4.660462379455566,0.700569748878479,-0.5071940422058105,0.08931070566177368,0.0,0.0,0.0,0.0,0.0,0.0,0.0,0.0,0.0,0.0,0.0,0.0,0.0,0.0,0.0,0.0,0.0,0.0,0.0,0.0,0.0,0.0,0.0,0.0,0.0,0.0,0.0,0.0,0.0,0.0,0.0,0.0,0.0,0.0,0.0,0.0,0.0,0.0,0.0,-0.21987959742546082,0.05388159304857254,9.457294464111328,-0.19028230011463165,-0.004116262774914503,-0.03292381018400192,0.0,0.0,0.0,0.19910164177417755,-0.057847797870635986,9.50393295288086,0.06902775168418884,0.277823805809021,-0.005400857422500849,0.0,0.0,0.0,0.028976263478398323,-0.14841228723526,9.482635498046875,-0.18076518177986145,0.10542552173137665,0.05092964321374893,0.0,0.0,0.0,6.714980602264404,-2.85907244682312,9.92408275604248,-1.6515367031097412,0.2153615653514862,0.5036215782165527,0.0,0.0,0.0,-0.22321300208568573,-0.010483670979738235,9.523832321166992,0.1990101933479309,-0.08208601921796799,0.07124220579862595,0.0,0.0,0.0,-8.701516151428223,-0.09908834844827652,9.245278358459473,-1.236591100692749,-0.12508374452590942,0.6422996520996094,0.0,0.0,0.0,0.05718677490949631,-0.20581667125225067,9.125950813293457,0.016385303810238838,-0.06888710707426071,0.04683220013976097,0.0,0.0,0.0,-0.04334146901965141,0.14087505638599396,9.49609375,0.049817051738500595,0.05420205369591713,-0.0012720493832603097,0.0,0.0,0.0
0.015,0.0,0.0,0.0,0.0,0.0,0.0,0.0,0.0,0.0,0.0,0.0,0.0,10.504764556884766,-0.3149455785751343,-193.5894775390625,9381.0419921875,24566.0390625,-458.9546813964844,0.0,0.0,0.0,0.0,0.0,0.0,0.00518798828125,0.0054931640625,0.00701904296875,0.00152587890625,0.00274658203125,0.00396728515625,0.0,0.0,0.0,0.0,0.0,0.0,0.0,0.0,0.0,0.0,0.0,0.0,0.0,0.0,0.0,0.0,0.0,0.0,0.0,0.0,0.0,0.0,0.0,0.0,0.0,0.0,0.0,0.0,0.0,0.0,0.0,0.0,0.0,0.0,0.0,0.0,0.0,0.0,0.0,0.0,0.0,0.0,0.0,0.0,0.0,0.0,0.0,0.0,0.0,0.0,0.0,0.0,0.0,0.0,0.0,0.0,0.0,0.0,0.0,0.0,0.0,0.0,0.0,0.0,-0.00024438108084723353,1.2374116522551049e-05,-7.543652463937178e-05,3.443517198320478e-05,0.0,0.0,0.0,0.0,-0.0004733519162982702,0.00031740247504785657,0.0005623128381557763,2.3472339307772927e-05,-0.0003861351287923753,-1.0433715942781419e-05,0.0009356961236335337,-0.0007712483638897538,-0.1864212602376938,0.1443050354719162,9.321389198303223,-0.31486567854881287,0.10847845673561096,0.027452189475297928,0.0,0.0,0.0,0.08553832024335861,-0.14299915730953217,9.287217140197754,0.27776288986206055,0.03937634825706482,0.019373735412955284,0.0,0.0,0.0,-0.008815200999379158,-7.810321807861328,9.453070640563965,1.019431710243225,-0.6430582404136658,-0.01405260805040598,0.0,0.0,0.0,0.016325000673532486,-9.227470397949219,4.676963806152344,0.6886268258094788,-0.5050960779190063,0.08615387231111526,0.0,0.0,0.0,0.0,0.0,0.0,0.0,0.0,0.0,0.0,0.0,0.0,0.0,0.0,0.0,0.0,0.0,0.0,0.0,0.0,0.0,0.0,0.0,0.0,0.0,0.0,0.0,0.0,0.0,0.0,0.0,0.0,0.0,0.0,0.0,0.0,0.0,0.0,0.0,-0.22091948986053467,0.0539783239364624,9.454812049865723,-0.19042383134365082,-0.004184344317764044,-0.03291843459010124,0.0,0.0,0.0,0.20143941044807434,-0.05680789798498154,9.505634307861328,0.06917466223239899,0.27790799736976624,-0.005248569883406162,0.0,0.0,0.0,0.0297098346054554,-0.14876697957515717,9.48169231414795,-0.18099091947078705,0.10543089359998703,0.05115538835525513,0.0,0.0,0.0,6.663501739501953,-2.8682541847229004,9.905138969421387,-1.6515815258026123,0.2790910601615906,0.5014196634292603,0.0,0.0,0.0,-0.2234226018190384,-0.010556220076978207,9.523808479309082,0.1990101933479309,-0.0820179358124733,0.07115799933671951,0.0,0.0,0.0,-8.576252937316895,-0.09772592782974243,9.218546867370605,-1.249230980873108,-0.20628869533538818,0.6480166912078857,0.0,0.0,0.0,0.05680789798498154,-0.20688074827194214,9.127676010131836,0.016181059181690216,-0.06910210102796555,0.04675336927175522,0.0,0.0,0.0,-0.04407504200935364,0.14136679470539093,9.495078086853027,0.04980092868208885,0.0542755089700222,-0.001209342502988875,0.0,0.0,0.0
0.016,0.0,0.0,0.0,0.0,0.0,0.0,0.0,0.0,0.0,0.0,0.0,0.0,10.504764556884766,-0.16235770285129547,-193.5894775390625,9289.4892578125,24688.109375,-413.17828369140625,0.0,0.0,0.0,0.0,0.0,0.0,0.00518798828125,0.0054931640625,0.00701904296875,0.00152587890625,0.00274658203125,0.00396728515625,0.0,0.0,0.0,0.0,0.0,0.0,0.0,0.0,0.0,0.0,0.0,0.0,0.0,0.0,0.0,0.0,0.0,0.0,0.0,0.0,0.0,0.0,0.0,0.0,0.0,0.0,0.0,0.0,0.0,0.0,0.0,0.0,0.0,0.0,0.0,0.0,0.0,0.0,0.0,0.0,0.0,0.0,0.0,0.0,0.0,0.0,0.0,0.0,0.0,0.0,0.0,0.0,0.0,0.0,0.0,0.0,0.0,0.0,0.0,0.0,0.0,0.0,0.0,0.0,-0.00028204036061652005,1.5741175957373343e-05,-7.953251770231873e-05,2.9961993277538568e-05,0.0,0.0,0.0,0.0,-0.0004260895657353103,0.00024965827469713986,0.0004650350601878017,2.521542046451941e-05,-0.0003164162044413388,-1.1794174497481436e-05,0.0009306464926339686,-0.0007804571650922298,-0.1860181987285614,0.14491769671440125,9.319808959960938,-0.3147241473197937,0.10841575264930725,0.027247942984104156,0.0,0.0,0.0,0.08487728983163834,-0.14243486523628235,9.284903526306152,0.2777467668056488,0.03937634825706482,0.019572608172893524,0.0,0.0,0.0,-0.0018422262510284781,-7.80024528503418,9.444340705871582,1.011480450630188,-0.6454339623451233,-0.014267603866755962,0.0,0.0,0.0,-0.008455541916191578,-9.22335147857666,4.689966678619385,0.6778161525726318,-0.5020574927330017,0.08777347952127457,0.0,0.0,0.0,0.0,0.0,0.0,0.0,0.0,0.0,0.0,0.0,0.0,0.0,0.0,0.0,0.0,0.0,0.0,0.0,0.0,0.0,0.0,0.0,0.0,0.0,0.0,0.0,0.0,0.0,0.0,0.0,0.0,0.0,0.0,0.0,0.0,0.0,0.0,0.0,-0.22141124308109283,0.05527619644999504,9.452643394470215,-0.19035036861896515,-0.004132386296987534,-0.03285572677850723,0.0,0.0,0.0,0.20172156393527985,-0.056122686713933945,9.506174087524414,0.06918541342020035,0.27806565165519714,-0.005191237200051546,0.0,0.0,0.0,0.030604643747210503,-0.1490733027458191,9.482353210449219,-0.18103750050067902,0.10549897700548172,0.051207344979047775,0.0,0.0,0.0,6.566137790679932,-2.851341724395752,9.913224220275879,-1.6468032598495483,0.3465045690536499,0.4990493357181549,0.0,0.0,0.0,-0.22186677157878876,-0.011475211940705776,9.523429870605469,0.1990155726671219,-0.08208601921796799,0.07101108878850937,0.0,0.0,0.0,-8.431721687316895,-0.133098766207695,9.216032028198242,-1.268417477607727,-0.2621999979019165,0.6466801166534424,0.0,0.0,0.0,0.056171052157878876,-0.20772719383239746,9.128595352172852,0.016379931941628456,-0.06902864575386047,0.046679913997650146,0.0,0.0,0.0,-0.04504239931702614,0.13919830322265625,9.494771957397461,0.04958055913448334,0.0542755089700222,-0.0013401320902630687,0.0,0.0,0.0
0.017,0.0,0.0,0.0,0.0,0.0,0.0,0.0,0.0,0.0,0.0,0.0,0.0,10.199588775634766,-0.009769812226295471,-193.5894775390625,8923.2783203125,24566.0390625,-413.17828369140625,0.0,0.0,0.0,0.0,0.0,0.0,0.0048828125,0.00518798828125,0.0067138671875,0.00213623046875,0.00335693359375,0.0042724609375,0.0,0.0,0.0,0.0,0.0,0.0,0.0,0.0,0.0,0.0,0.0,0.0,0.0,0.0,0.0,0.0,0.0,0.0,0.0,0.0,0.0,0.0,0.0,0.0,0.0,0.0,0.0,0.0,0.0,0.0,0.0,0.0,0.0,0.0,0.0,0.0,0.0,0.0,0.0,0.0,0.0,0.0,0.0,0.0,0.0,0.0,0.0,0.0,0.0,0.0,0.0,0.0,0.0,0.0,0.0,0.0,0.0,0.0,0.0,0.0,0.0,0.0,0.0,0.0,-0.00029746926156803966,1.7661161109572276e-05,-7.706817268626764e-05,2.5165558326989412e-05,0.0,0.0,0.0,0.0,-0.0003707371652126312,0.00018667729455046356,0.0003709419397637248,2.3890896045486443e-05,-0.00025013028061948717,-1.1970879313594196e-05,0.0008809420978650451,-0.0007527390262112021,-0.18561513721942902,0.1455303579568863,9.318228721618652,-0.31458258628845215,0.10835304111242294,0.027043696492910385,0.0,0.0,0.0,0.08421626687049866,-0.14187057316303253,9.28258991241455,0.27773064374923706,0.03937634825706482,0.019771479070186615,0.0,0.0,0.0,0.005130748730152845,-7.790168762207031,9.435609817504883,1.0035291910171509,-0.647809624671936,-0.014482599683105946,0.0,0.0,0.0,-0.03323608636856079,-9.219231605529785,4.702969551086426,0.6670055389404297,-0.49901890754699707,0.08939309418201447,0.0,0.0,0.0,0.0,0.0,0.0,0.0,0.0,0.0,0.0,0.0,0.0,0.0,0.0,0.0,0.0,0.0,0.0,0.0,0.0,0.0,0.0,0.0,0.0,0.0,0.0,0.0,0.0,0.0,0.0,0.0,0.0,0.0,0.0,0.0,0.0,0.0,0.0,0.0,-0.2219029814004898,0.05657406523823738,9.450474739074707,-0.19027692079544067,-0.004080427810549736,-0.03279301896691322,0.0,0.0,0.0,0.20200370252132416,-0.05543747916817665,9.506714820861816,0.06919615715742111,0.27822330594062805,-0.005133904051035643,0.0,0.0,0.0,0.03149945288896561,-0.1493796408176422,9.483014106750488,-0.18108408153057098,0.10556706041097641,0.05125930532813072,0.0,0.0,0.0,6.468773365020752,-2.8344290256500244,9.921309471130371,-1.6420249938964844,0.4139181077480316,0.49667903780937195,0.0,0.0,0.0,-0.22031092643737793,-0.012394203804433346,9.523050308227539,0.19902093708515167,-0.08215410262346268,0.07086417078971863,0.0,0.0,0.0,-8.287191390991211,-0.1684715896844864,9.213516235351562,-1.2876039743423462,-0.3181113302707672,0.6453436017036438,0.0,0.0,0.0,0.05553421005606651,-0.20857363939285278,9.12951374053955,0.016578802838921547,-0.0689551904797554,0.046606454998254776,0.0,0.0,0.0,-0.04600975662469864,0.13702979683876038,9.494464874267578,0.049360185861587524,0.0542755089700222,-0.0014709217939525843,0.0,0.0,0.0
0.017,0.0,0.0,0.0,0.0,0.0,0.0,0.0,0.0,0.0,0.0,0.0,0.0,9.894412994384766,0.14281807839870453,-193.5894775390625,8557.0673828125,24443.96875,-413.17828369140625,0.0,0.0,0.0,0.0,0.0,0.0,0.0048828125,0.00518798828125,0.0067138671875,0.00213623046875,0.00335693359375,0.0042724609375,0.0,0.0,0.0,0.0,0.0,0.0,0.0,0.0,0.0,0.0,0.0,0.0,0.0,0.0,0.0,0.0,0.0,0.0,0.0,0.0,0.0,0.0,0.0,0.0,0.0,0.0,0.0,0.0,0.0,0.0,0.0,0.0,0.0,0.0,0.0,0.0,0.0,0.0,0.0,0.0,0.0,0.0,0.0,0.0,0.0,0.0,0.0,0.0,0.0,0.0,0.0,0.0,0.0,0.0,0.0,0.0,0.0,0.0,0.0,0.0,0.0,0.0,0.0,0.0,-0.0002978330012410879,1.830911060096696e-05,-7.47391241020523e-05,1.7809819837566465e-05,0.0,0.0,0.0,0.0,-0.00030738633358851075,0.00012161292397649959,0.0002713575086090714,2.0700406821561046e-05,-0.00018089433433488011,-7.65316144679673e-06,0.00079936976544559,-0.0006959067541174591,-0.18521207571029663,0.14614301919937134,9.316649436950684,-0.314441055059433,0.10829033702611923,0.026839450001716614,0.0,0.0,0.0,0.08355523645877838,-0.14130626618862152,9.28027629852295,0.2777145206928253,0.03937634825706482,0.019970351830124855,0.0,0.0,0.0,0.012103723362088203,-7.780092239379883,9.4268798828125,0.9955779910087585,-0.6501853466033936,-0.014697595499455929,0.0,0.0,0.0,-0.05801662802696228,-9.215112686157227,4.715972423553467,0.6561948657035828,-0.49598032236099243,0.09101270139217377,0.0,0.0,0.0,0.0,0.0,0.0,0.0,0.0,0.0,0.0,0.0,0.0,0.0,0.0,0.0,0.0,0.0,0.0,0.0,0.0,0.0,0.0,0.0,0.0,0.0,0.0,0.0,0.0,0.0,0.0,0.0,0.0,0.0,0.0,0.0,0.0,0.0,0.0,0.0,-0.22239473462104797,0.05787193775177002,9.4483060836792,-0.190203458070755,-0.004028469789773226,-0.032730311155319214,0.0,0.0,0.0,0.20228585600852966,-0.05475226789712906,9.507254600524902,0.06920690834522247,0.27838099002838135,-0.0050765713676810265,0.0,0.0,0.0,0.03239426016807556,-0.14968596398830414,9.483675003051758,-0.18113066256046295,0.1056351363658905,0.05131126195192337,0.0,0.0,0.0,6.3714094161987305,-2.817516565322876,9.92939567565918,-1.6372467279434204,0.48133161664009094,0.4943087100982666,0.0,0.0,0.0,-0.2187550961971283,-0.01331319473683834,9.522671699523926,0.19902631640434265,-0.08222217857837677,0.07071726024150848,0.0,0.0,0.0,-8.142660140991211,-0.20384442806243896,9.2110013961792,-1.3067904710769653,-0.37402263283729553,0.6440070271492004,0.0,0.0,0.0,0.05489736422896385,-0.2094200849533081,9.130433082580566,0.016777675598859787,-0.06888173520565033,0.046532999724149704,0.0,0.0,0.0,-0.04697711393237114,0.1348613053560257,9.494158744812012,0.04913981631398201,0.0542755089700222,-0.001601711381226778,0.0,0.0,0.0
0.018,0.0,0.0,0.0,0.0,0.0,0.0,0.0,0.0,0.0,0.0,0.0,0.0,9.741825103759766,-0.009769812226295471,-193.8946533203125,9106.3837890625,24505.00390625,-413.17828369140625,0.0,0.0,0.0,0.0,0.0,0.0,0.00518798828125,0.00518798828125,0.00701904296875,0.00213623046875,0.0030517578125,0.0042724609375,0.0,0.0,0.0,0.0,0.0,0.0,0.0,0.0,0.0,0.0,0.0,0.0,0.0,0.0,0.0,0.0,0.0,0.0,0.0,0.0,0.0,0.0,0.0,0.0,0.0,0.0,0.0,0.0,0.0,0.0,0.0,0.0,0.0,0.0,0.0,0.0,0.0,0.0,0.0,0.0,0.0,0.0,0.0,0.0,0.0,0.0,0.0,0.0,0.0,0.0,0.0,0.0,0.0,0.0,0.0,0.0,0.0,0.0,0.0,0.0,0.0,0.0,0.0,0.0,-0.00029610280762426555,1.8826700397767127e-05,-7.420789916068316e-05,9.316314390162006e-06,0.0,0.0,0.0,0.0,-0.00022726999304722995,4.122083919355646e-05,0.00014527447638101876,1.6240222976193763e-05,-9.402022988069803e-05,-9.293107723351568e-07,0.000694048881996423,-0.0006190896965563297,-0.18480901420116425,0.14675568044185638,9.315069198608398,-0.3142995238304138,0.10822762548923492,0.026635203510522842,0.0,0.0,0.0,0.0828942134976387,-0.1407419741153717,9.277962684631348,0.2776983976364136,0.03937634825706482,0.020169222727417946,0.0,0.0,0.0,0.019076697528362274,-7.770015239715576,9.4181489944458,0.9876267313957214,-0.6525610685348511,-0.014912592247128487,0.0,0.0,0.0,-0.08279716968536377,-9.210992813110352,4.728975296020508,0.6453842520713806,-0.4929417371749878,0.09263230860233307,0.0,0.0,0.0,0.0,0.0,0.0,0.0,0.0,0.0,0.0,0.0,0.0,0.0,0.0,0.0,0.0,0.0,0.0,0.0,0.0,0.0,0.0,0.0,0.0,0.0,0.0,0.0,0.0,0.0,0.0,0.0,0.0,0.0,0.0,0.0,0.0,0.0,0.0,0.0,-0.22288647294044495,0.05916980654001236,9.446138381958008,-0.19012999534606934,-0.0039765117689967155,-0.032667603343725204,0.0,0.0,0.0,0.20256799459457397,-0.05406705662608147,9.507794380187988,0.06921765953302383,0.27853864431381226,-0.00501923868432641,0.0,0.0,0.0,0.033289067447185516,-0.14999230206012726,9.484335899353027,-0.1811772584915161,0.10570321977138519,0.05136321857571602,0.0,0.0,0.0,6.274044990539551,-2.8006041049957275,9.937480926513672,-1.6324684619903564,0.5487451553344727,0.49193841218948364,0.0,0.0,0.0,-0.21719926595687866,-0.01423218660056591,9.522293090820312,0.19903169572353363,-0.08229026198387146,0.07057034224271774,0.0,0.0,0.0,-7.998129844665527,-0.23921725153923035,9.208486557006836,-1.325977087020874,-0.42993393540382385,0.6426704525947571,0.0,0.0,0.0,0.05426052212715149,-0.21026651561260223,9.131352424621582,0.016976546496152878,-0.06880827993154526,0.04645954445004463,0.0,0.0,0.0,-0.04794447124004364,0.13269281387329102,9.493852615356445,0.048919446766376495,0.0542755089700222,-0.0017325010849162936,0.0,0.0,0.0
0.018,0.0,0.0,0.0,0.0,0.0,0.0,0.0,0.0,0.0,0.0,0.0,0.0,9.589237213134766,-0.16235770285129547,-194.1998291015625,9655.7001953125,24566.0390625,-413.17828369140625,0.0,0.0,0.0,0.0,0.0,0.0,0.00518798828125,0.00518798828125,0.00701904296875,0.00213623046875,0.0030517578125,0.0042724609375,0.0,0.0,0.0,0.0,0.0,0.0,0.0,0.0,0.0,0.0,0.0,0.0,0.0,0.0,0.0,0.0,0.0,0.0,0.0,0.0,0.0,0.0,0.0,0.0,0.0,0.0,0.0,0.0,0.0,0.0,0.0,0.0,0.0,0.0,0.0,0.0,0.0,0.0,0.0,0.0,0.0,0.0,0.0,0.0,0.0,0.0,0.0,0.0,0.0,0.0,0.0,0.0,0.0,0.0,0.0,0.0,0.0,0.0,0.0,0.0,0.0,0.0,0.0,0.0,-0.0002832509344443679,1.881578646134585e-05,-6.99263546266593e-05,4.450596861715894e-06,0.0,0.0,0.0,0.0,-0.00013766990741714835,-4.049348353873938e-05,1.3025186490267515e-05,1.0263825060974341e-05,-3.516528522595763e-06,2.722346835071221e-06,0.0005588944186456501,-0.0005151755176484585,-0.18440595269203186,0.14736834168434143,9.313488960266113,-0.31415799260139465,0.10816492140293121,0.02643095701932907,0.0,0.0,0.0,0.08223318308591843,-0.1401776820421219,9.275649070739746,0.27768227458000183,0.03937634825706482,0.020368095487356186,0.0,0.0,0.0,0.026049673557281494,-7.759938716888428,9.409419059753418,0.9796754717826843,-0.6549367904663086,-0.01512758806347847,0.0,0.0,0.0,-0.10757771134376526,-9.206873893737793,4.741978168487549,0.6345735788345337,-0.48990315198898315,0.09425192326307297,0.0,0.0,0.0,0.0,0.0,0.0,0.0,0.0,0.0,0.0,0.0,0.0,0.0,0.0,0.0,0.0,0.0,0.0,0.0,0.0,0.0,0.0,0.0,0.0,0.0,0.0,0.0,0.0,0.0,0.0,0.0,0.0,0.0,0.0,0.0,0.0,0.0,0.0,0.0,-0.2233782261610031,0.060467679053545,9.4439697265625,-0.19005654752254486,-0.003924553748220205,-0.032604899257421494,0.0,0.0,0.0,0.20285014808177948,-0.05338184908032417,9.508334159851074,0.0692284107208252,0.27869629859924316,-0.004961906000971794,0.0,0.0,0.0,0.03418387845158577,-0.15029862523078918,9.484997749328613,-0.18122383952140808,0.10577130317687988,0.051415178924798965,0.0,0.0,0.0,6.176681041717529,-2.783691644668579,9.945566177368164,-1.6276901960372925,0.616158664226532,0.4895680844783783,0.0,0.0,0.0,-0.21564342081546783,-0.01515117846429348,9.521913528442383,0.19903706014156342,-0.08235834538936615,0.0704234316945076,0.0,0.0,0.0,-7.8535990715026855,-0.27459007501602173,9.205970764160156,-1.3451635837554932,-0.4858452379703522,0.6413339376449585,0.0,0.0,0.0,0.05362367630004883,-0.21111296117305756,9.132270812988281,0.017175419256091118,-0.06873481720685959,0.04638608545064926,0.0,0.0,0.0,-0.04891183227300644,0.13052430748939514,9.493546485900879,0.04869907721877098,0.0542755089700222,-0.0018632906721904874,0.0,0.0,0.0
0.018,0.0,0.0,0.0,0.0,0.0,0.0,0.0,0.0,0.0,0.0,0.0,0.0,9.894412994384766,-0.009769812226295471,-194.1998291015625,9564.1474609375,24382.93359375,-367.40191650390625,0.0,0.0,0.0,0.0,0.0,0.0,0.0048828125,0.0048828125,0.0067138671875,0.00244140625,0.0030517578125,0.00457763671875,0.0,0.0,0.0,0.0,0.0,0.0,0.0,0.0,0.0,0.0,0.0,0.0,0.0,0.0,0.0,0.0,0.0,0.0,0.0,0.0,0.0,0.0,0.0,0.0,0.0,0.0,0.0,0.0,0.0,0.0,0.0,0.0,0.0,0.0,0.0,0.0,0.0,0.0,0.0,0.0,0.0,0.0,0.0,0.0,0.0,0.0,0.0,0.0,0.0,0.0,0.0,0.0,0.0,0.0,0.0,0.0,0.0,0.0,0.0,0.0,0.0,0.0,0.0,0.0,-0.0002583837485872209,1.809970308386255e-05,-6.073451731936075e-05,4.631815500033554e-06,0.0,0.0,0.0,0.0,-5.0048998673446476e-05,-0.00011876740609295666,-0.00010823157208506018,5.986021733406233e-06,8.358028571819887e-05,1.3695949974135146e-06,0.000409074651543051,-0.00039044651202857494,-0.18400289118289948,0.14798100292682648,9.311908721923828,-0.3140164315700531,0.1081022098660469,0.0262267105281353,0.0,0.0,0.0,0.08157216012477875,-0.13961338996887207,9.273335456848145,0.2776661515235901,0.03937634825706482,0.020566966384649277,0.0,0.0,0.0,0.033022645860910416,-7.749862194061279,9.400688171386719,0.9717242121696472,-0.6573124527931213,-0.015342583879828453,0.0,0.0,0.0,-0.13235825300216675,-9.202754974365234,4.75498104095459,0.6237629652023315,-0.4868645668029785,0.09587153047323227,0.0,0.0,0.0,0.0,0.0,0.0,0.0,0.0,0.0,0.0,0.0,0.0,0.0,0.0,0.0,0.0,0.0,0.0,0.0,0.0,0.0,0.0,0.0,0.0,0.0,0.0,0.0,0.0,0.0,0.0,0.0,0.0,0.0,0.0,0.0,0.0,0.0,0.0,0.0,-0.22386997938156128,0.06176554784178734,9.441801071166992,-0.1899830847978592,-0.0038725954946130514,-0.032542191445827484,0.0,0.0,0.0,0.20313230156898499,-0.05269663780927658,9.508874893188477,0.06923915445804596,0.2788539528846741,-0.004904572851955891,0.0,0.0,0.0,0.035078685730695724,-0.1506049633026123,9.485658645629883,-0.18127042055130005,0.10583938658237457,0.051467135548591614,0.0,0.0,0.0,6.079317092895508,-2.7667789459228516,9.953651428222656,-1.6229119300842285,0.6835721731185913,0.48719778656959534,0.0,0.0,0.0,-0.2140875905752182,-0.01607017032802105,9.52153491973877,0.1990424394607544,-0.08242642879486084,0.07027651369571686,0.0,0.0,0.0,-7.709068298339844,-0.3099629282951355,9.203455924987793,-1.3643500804901123,-0.5417565703392029,0.6399973630905151,0.0,0.0,0.0,0.052986834198236465,-0.21195940673351288,9.133190155029297,0.01737429015338421,-0.06866136193275452,0.04631263017654419,0.0,0.0,0.0,-0.04987918958067894,0.12835581600666046,9.493239402770996,0.04847870394587517,0.0542755089700222,-0.001994080375880003,0.0,0.0,0.0
0.019,0.0,0.0,0.0,0.0,0.0,0.0,0.0,0.0,0.0,0.0,0.0,0.0,10.199588775634766,0.14281807839870453,-194.1998291015625,9472.5947265625,24199.828125,-321.62554931640625,0.0,0.0,0.0,0.0,0.0,0.0,0.0048828125,0.0048828125,0.0067138671875,0.00244140625,0.0030517578125,0.00457763671875,0.0,0.0,0.0,0.0,0.0,0.0,0.0,0.0,0.0,0.0,0.0,0.0,0.0,0.0,0.0,0.0,0.0,0.0,0.0,0.0,0.0,0.0,0.0,0.0,0.0,0.0,0.0,0.0,0.0,0.0,0.0,0.0,0.0,0.0,0.0,0.0,0.0,0.0,0.0,0.0,0.0,0.0,0.0,0.0,0.0,0.0,0.0,0.0,0.0,0.0,0.0,0.0,0.0,0.0,0.0,0.0,0.0,0.0,0.0,0.0,0.0,0.0,0.0,0.0,-0.00022601915406994522,1.705548129393719e-05,-4.450206324690953e-05,8.793978850007989e-06,0.0,0.0,0.0,0.0,3.583664874895476e-05,-0.00019997369963675737,-0.00021991741959936917,5.917584530834574e-06,0.00017340912017971277,-1.978067984964582e-06,0.0002569363859947771,-0.0002541600842960179,-0.1835998296737671,0.14859366416931152,9.310328483581543,-0.31387490034103394,0.1080395057797432,0.02602246403694153,0.0,0.0,0.0,0.08091112971305847,-0.13904909789562225,9.271021842956543,0.27765002846717834,0.03937634825706482,0.020765839144587517,0.0,0.0,0.0,0.039995621889829636,-7.739785671234131,9.391958236694336,0.9637730121612549,-0.6596881747245789,-0.015557579696178436,0.0,0.0,0.0,-0.15713879466056824,-9.19863510131836,4.767983913421631,0.6129522919654846,-0.4838259816169739,0.09749114513397217,0.0,0.0,0.0,0.0,0.0,0.0,0.0,0.0,0.0,0.0,0.0,0.0,0.0,0.0,0.0,0.0,0.0,0.0,0.0,0.0,0.0,0.0,0.0,0.0,0.0,0.0,0.0,0.0,0.0,0.0,0.0,0.0,0.0,0.0,0.0,0.0,0.0,0.0,0.0,-0.22436171770095825,0.06306342035531998,9.439632415771484,-0.18990963697433472,-0.0038206372410058975,-0.032479483634233475,0.0,0.0,0.0,0.2034144401550293,-0.05201142653822899,9.509414672851562,0.06924990564584732,0.27901163697242737,-0.0048472401686012745,0.0,0.0,0.0,0.03597349673509598,-0.15091128647327423,9.486319541931152,-0.18131700158119202,0.10590746253728867,0.05151909217238426,0.0,0.0,0.0,5.981952667236328,-2.749866485595703,9.961737632751465,-1.6181336641311646,0.7509856820106506,0.48482745885849,0.0,0.0,0.0,-0.21253174543380737,-0.01698916219174862,9.521156311035156,0.19904781877994537,-0.08249450474977493,0.07012960314750671,0.0,0.0,0.0,-7.564537525177002,-0.3453357517719269,9.20094108581543,-1.3835365772247314,-0.5976678729057312,0.6386608481407166,0.0,0.0,0.0,0.052349988371133804,-0.2128058522939682,9.134108543395996,0.01757316291332245,-0.06858790665864944,0.04623917117714882,0.0,0.0,0.0,-0.05084654688835144,0.12618732452392578,9.49293327331543,0.04825833439826965,0.0542755089700222,-0.0021248699631541967,0.0,0.0,0.0
0.019,0.0,0.0,0.0,0.0,0.0,0.0,0.0,0.0,0.0,0.0,0.0,0.0,10.047000885009766,-0.009769812226295471,-193.8946533203125,9381.0419921875,24321.8984375,-413.1783142089844,0.0,0.0,0.0,0.0,0.0,0.0,0.0048828125,0.00579833984375,0.00732421875,0.00274658203125,0.0030517578125,0.00457763671875,0.0,0.0,0.0,0.0,0.0,0.0,0.0,0.0,0.0,0.0,0.0,0.0,0.0,0.0,0.0,0.0,0.0,0.0,0.0,0.0,0.0,0.0,0.0,0.0,0.0,0.0,0.0,0.0,0.0,0.0,0.0,0.0,0.0,0.0,0.0,0.0,0.0,0.0,0.0,0.0,0.0,0.0,0.0,0.0,0.0,0.0,0.0,0.0,0.0,0.0,0.0,0.0,0.0,0.0,0.0,0.0,0.0,0.0,0.0,0.0,0.0,0.0,0.0,0.0,-0.00018425844609737396,1.5514613551204093e-05,-2.4268894776469097e-05,1.2190623237984255e-05,0.0,0.0,0.0,0.0,0.00012244615936651826,-0.00028012017719447613,-0.0003222174709662795,8.01464011601638e-06,0.00026018123026005924,-3.707952146214666e-06,9.844153828453273e-05,-0.00010973717144224793,-0.1831967681646347,0.14920632541179657,9.308748245239258,-0.31373336911201477,0.10797679424285889,0.025818217545747757,0.0,0.0,0.0,0.08025010675191879,-0.13848480582237244,9.268708229064941,0.2776339054107666,0.03937634825706482,0.020964710041880608,0.0,0.0,0.0,0.046968597918748856,-7.729709148406982,9.383227348327637,0.9558217525482178,-0.6620638966560364,-0.01577257551252842,0.0,0.0,0.0,-0.18191933631896973,-9.1945161819458,4.780986785888672,0.6021416783332825,-0.48078739643096924,0.09911075234413147,0.0,0.0,0.0,0.0,0.0,0.0,0.0,0.0,0.0,0.0,0.0,0.0,0.0,0.0,0.0,0.0,0.0,0.0,0.0,0.0,0.0,0.0,0.0,0.0,0.0,0.0,0.0,0.0,0.0,0.0,0.0,0.0,0.0,0.0,0.0,0.0,0.0,0.0,0.0,-0.22485347092151642,0.06436128914356232,9.437463760375977,-0.18983617424964905,-0.0037686792202293873,-0.032416775822639465,0.0,0.0,0.0,0.2036965936422348,-0.051326218992471695,9.509954452514648,0.06926065683364868,0.2791692912578583,-0.004789907485246658,0.0,0.0,0.0,0.03686830401420593,-0.15121762454509735,9.486980438232422,-0.18136358261108398,0.10597554594278336,0.05157105252146721,0.0,0.0,0.0,5.884588718414307,-2.7329540252685547,9.969822883605957,-1.6133553981781006,0.81839919090271,0.48245716094970703,0.0,0.0,0.0,-0.21097591519355774,-0.01790815405547619,9.520776748657227,0.19905318319797516,-0.08256258815526962,0.06998268514871597,0.0,0.0,0.0,-7.42000675201416,-0.38070857524871826,9.19842529296875,-1.4027230739593506,-0.6535791754722595,0.6373242735862732,0.0,0.0,0.0,0.05171314626932144,-0.21365229785442352,9.135027885437012,0.01777203381061554,-0.06851445138454437,0.04616571590304375,0.0,0.0,0.0,-0.05181390419602394,0.1240188255906105,9.492627143859863,0.04803796485066414,0.0542755089700222,-0.0022556595504283905,0.0,0.0,0.0
0.020,0.0,0.0,0.0,0.0,0.0,0.0,0.0,0.0,0.0,0.0,0.0,0.0,9.894412994384766,-0.16235770285129547,-193.5894775390625,9289.4892578125,24443.96875,-504.7310485839844,0.0,0.0,0.0,0.0,0.0,0.0,0.0048828125,0.00579833984375,0.00732421875,0.00274658203125,0.0030517578125,0.00457763671875,0.0,0.0,0.0,0.0,0.0,0.0,0.0,0.0,0.0,0.0,0.0,0.0,0.0,0.0,0.0,0.0,0.0,0.0,0.0,0.0,0.0,0.0,0.0,0.0,0.0,0.0,0.0,0.0,0.0,0.0,0.0,0.0,0.0,0.0,0.0,0.0,0.0,0.0,0.0,0.0,0.0,0.0,0.0,0.0,0.0,0.0,0.0,0.0,0.0,0.0,0.0,0.0,0.0,0.0,0.0,0.0,0.0,0.0,0.0,0.0,0.0,0.0,0.0,0.0,-0.0001345217606285587,1.3135966582922265e-05,-1.2838518159696832e-05,7.743944479443599e-06,0.0,0.0,0.0,0.0,0.00020849799329880625,-0.0003546380321495235,-0.00041947956196963787,9.174481419904623e-06,0.0003333995118737221,-3.948091944039334e-06,-6.846870383014902e-05,3.750700852833688e-05,-0.18279370665550232,0.14981898665428162,9.307168960571289,-0.3135918378829956,0.10791409015655518,0.025613971054553986,0.0,0.0,0.0,0.07958907634019852,-0.13792049884796143,9.26639461517334,0.27761778235435486,0.03937634825706482,0.021163582801818848,0.0,0.0,0.0,0.05394157022237778,-7.719632625579834,9.374497413635254,0.9478704929351807,-0.6644395589828491,-0.015987571328878403,0.0,0.0,0.0,-0.2066998928785324,-9.190396308898926,4.793989658355713,0.5913310050964355,-0.4777488112449646,0.10073035955429077,0.0,0.0,0.0,0.0,0.0,0.0,0.0,0.0,0.0,0.0,0.0,0.0,0.0,0.0,0.0,0.0,0.0,0.0,0.0,0.0,0.0,0.0,0.0,0.0,0.0,0.0,0.0,0.0,0.0,0.0,0.0,0.0,0.0,0.0,0.0,0.0,0.0,0.0,0.0,-0.2253452092409134,0.06565915793180466,9.435295104980469,-0.18976271152496338,-0.0037167209666222334,-0.032354068011045456,0.0,0.0,0.0,0.2039787322282791,-0.0506410077214241,9.51049518585205,0.06927140802145004,0.2793269455432892,-0.004732574801892042,0.0,0.0,0.0,0.03776311129331589,-0.15152394771575928,9.487641334533691,-0.18141016364097595,0.10604362934827805,0.05162300914525986,0.0,0.0,0.0,5.787224292755127,-2.716041326522827,9.97790813446045,-1.6085771322250366,0.8858127593994141,0.4800868332386017,0.0,0.0,0.0,-0.2094200849533081,-0.01882714405655861,9.520398139953613,0.19905856251716614,-0.08263067156076431,0.06983577460050583,0.0,0.0,0.0,-7.275475978851318,-0.41608139872550964,9.195910453796387,-1.4219095706939697,-0.7094904780387878,0.6359876990318298,0.0,0.0,0.0,0.05107630044221878,-0.21449874341487885,9.135947227478027,0.01797090657055378,-0.0684409961104393,0.046092260628938675,0.0,0.0,0.0,-0.05278126150369644,0.12185032665729523,9.492321014404297,0.047817595303058624,0.0542755089700222,-0.0023864491377025843,0.0,0.0,0.0
0.021,0.0,0.0,0.0,0.0,0.0,0.0,0.0,0.0,0.0,0.0,0.0,0.0,9.894412994384766,-0.009769812226295471,-193.5894775390625,9289.4892578125,24505.00390625,-458.9546813964844,0.0,0.0,0.0,0.0,0.0,0.0,0.00457763671875,0.00518798828125,0.0067138671875,0.0018310546875,0.00335693359375,0.0042724609375,0.0,0.0,0.0,0.0,0.0,0.0,0.0,0.0,0.0,0.0,0.0,0.0,0.0,0.0,0.0,0.0,0.0,0.0,0.0,0.0,0.0,0.0,0.0,0.0,0.0,0.0,0.0,0.0,0.0,0.0,0.0,0.0,0.0,0.0,0.0,0.0,0.0,0.0,0.0,0.0,0.0,0.0,0.0,0.0,0.0,0.0,0.0,0.0,0.0,0.0,0.0,0.0,0.0,0.0,0.0,0.0,0.0,0.0,0.0,0.0,0.0,0.0,0.0,0.0,-8.118789992295206e-05,1.0198657037108205e-05,-7.550905138486996e-06,-1.4286879377323203e-06,0.0,0.0,0.0,0.0,0.0002876116777770221,-0.00041957636130973697,-0.0005094168591313064,8.752545909374021e-06,0.0003882369783241302,-4.16590046370402e-06,-0.0002364097163081169,0.0001824280188884586,-0.18239064514636993,0.15043164789676666,9.305588722229004,-0.31345027685165405,0.10785138607025146,0.025409724563360214,0.0,0.0,0.0,0.07892804592847824,-0.1373562067747116,9.264081001281738,0.2776016592979431,0.03937634825706482,0.02136245369911194,0.0,0.0,0.0,0.060914546251297,-7.7095561027526855,9.365767478942871,0.9399192333221436,-0.6668152809143066,-0.016202567145228386,0.0,0.0,0.0,-0.2314804345369339,-9.186277389526367,4.806992530822754,0.5805203914642334,-0.47471022605895996,0.10234997421503067,0.0,0.0,0.0,0.0,0.0,0.0,0.0,0.0,0.0,0.0,0.0,0.0,0.0,0.0,0.0,0.0,0.0,0.0,0.0,0.0,0.0,0.0,0.0,0.0,0.0,0.0,0.0,0.0,0.0,0.0,0.0,0.0,0.0,0.0,0.0,0.0,0.0,0.0,0.0,-0.22583696246147156,0.0669570341706276,9.433126449584961,-0.1896892637014389,-0.003664762945845723,-0.03229136019945145,0.0,0.0,0.0,0.20426088571548462,-0.04995579645037651,9.511034965515137,0.0692821517586708,0.2794845998287201,-0.004675241652876139,0.0,0.0,0.0,0.03865792229771614,-0.1518302857875824,9.488302230834961,-0.18145674467086792,0.10611171275377274,0.051674965769052505,0.0,0.0,0.0,5.6898603439331055,-2.6991288661956787,9.985993385314941,-1.6037988662719727,0.9532262682914734,0.4777165353298187,0.0,0.0,0.0,-0.20786423981189728,-0.01974613592028618,9.52001953125,0.19906394183635712,-0.082698754966259,0.06968886405229568,0.0,0.0,0.0,-7.130945205688477,-0.4514542520046234,9.193395614624023,-1.4410960674285889,-0.7654017806053162,0.6346511840820312,0.0,0.0,0.0,0.05043945461511612,-0.21534518897533417,9.136865615844727,0.01816977746784687,-0.06836754083633423,0.046018801629543304,0.0,0.0,0.0,-0.05374861881136894,0.11968182772397995,9.492013931274414,0.04759722203016281,0.0542755089700222,-0.0025172389578074217,0.0,0.0,0.0
0.021,0.0,0.0,0.0,0.0,0.0,0.0,0.0,0.0,0.0,0.0,0.0,0.0,9.894412994384766,0.14281807839870453,-193.5894775390625,9289.4892578125,24566.0390625,-413.17828369140625,0.0,0.0,0.0,0.0,0.0,0.0,0.00457763671875,0.00518798828125,0.0067138671875,0.0018310546875,0.00335693359375,0.0042724609375,0.0,0.0,0.0,0.0,0.0,0.0,0.0,0.0,0.0,0.0,0.0,0.0,0.0,0.0,0.0,0.0,0.0,0.0,0.0,0.0,0.0,0.0,0.0,0.0,0.0,0.0,0.0,0.0,0.0,0.0,0.0,0.0,0.0,0.0,0.0,0.0,0.0,0.0,0.0,0.0,0.0,0.0,0.0,0.0,0.0,0.0,0.0,0.0,0.0,0.0,0.0,0.0,0.0,0.0,0.0,0.0,0.0,0.0,0.0,0.0,0.0,0.0,0.0,0.0,-2.6913276087725535e-05,7.2577267928863876e-06,1.0267594007018488e-05,-4.1593766582082026e-06,0.0,0.0,0.0,0.0,0.00035099999513477087,-0.00046605427633039653,-0.0005765656824223697,8.044591595535167e-06,0.0004245240124873817,-4.199804607196711e-06,-0.0003906815545633435,0.0003191902651451528,-0.18198758363723755,0.1510443091392517,9.304008483886719,-0.3133087456226349,0.10778867453336716,0.025205478072166443,0.0,0.0,0.0,0.07826702296733856,-0.1367919147014618,9.261767387390137,0.27758553624153137,0.03937634825706482,0.02156132645905018,0.0,0.0,0.0,0.06788752228021622,-7.699479103088379,9.357036590576172,0.9319679737091064,-0.6691910028457642,-0.01641756296157837,0.0,0.0,0.0,-0.2562609612941742,-9.182158470153809,4.819995403289795,0.5697097182273865,-0.4716716408729553,0.10396958142518997,0.0,0.0,0.0,0.0,0.0,0.0,0.0,0.0,0.0,0.0,0.0,0.0,0.0,0.0,0.0,0.0,0.0,0.0,0.0,0.0,0.0,0.0,0.0,0.0,0.0,0.0,0.0,0.0,0.0,0.0,0.0,0.0,0.0,0.0,0.0,0.0,0.0,0.0,0.0,-0.22632871568202972,0.06825490295886993,9.43095874786377,-0.18961580097675323,-0.0036128046922385693,-0.03222865238785744,0.0,0.0,0.0,0.20454303920269012,-0.04927058890461922,9.511574745178223,0.06929290294647217,0.279642254114151,-0.0046179089695215225,0.0,0.0,0.0,0.039552729576826096,-0.15213660895824432,9.48896312713623,-0.18150334060192108,0.10617979615926743,0.05172692611813545,0.0,0.0,0.0,5.592496395111084,-2.6822164058685303,9.994078636169434,-1.5990206003189087,1.0206397771835327,0.4753462076187134,0.0,0.0,0.0,-0.20630840957164764,-0.020665127784013748,9.51963996887207,0.1990693062543869,-0.08276683837175369,0.06954194605350494,0.0,0.0,0.0,-6.986414432525635,-0.4868270754814148,9.190879821777344,-1.4602826833724976,-0.8213131427764893,0.6333146095275879,0.0,0.0,0.0,0.04980261251330376,-0.2161916196346283,9.137784957885742,0.01836865022778511,-0.06829408556222916,0.04594534635543823,0.0,0.0,0.0,-0.05471597611904144,0.11751333624124527,9.491707801818848,0.0473768524825573,0.0542755089700222,-0.0026480285450816154,0.0,0.0,0.0
0.021,0.0,0.0,0.0,0.0,0.0,0.0,0.0,0.0,0.0,0.0,0.0,0.0,9.741825103759766,-0.3149455785751343,-193.2843017578125,9472.5947265625,24443.96875,-413.17828369140625,0.0,0.0,0.0,0.0,0.0,0.0,0.0048828125,0.0054931640625,0.00701904296875,0.00244140625,0.003662109375,0.0042724609375,0.0,0.0,0.0,0.0,0.0,0.0,0.0,0.0,0.0,0.0,0.0,0.0,0.0,0.0,0.0,0.0,0.0,0.0,0.0,0.0,0.0,0.0,0.0,0.0,0.0,0.0,0.0,0.0,0.0,0.0,0.0,0.0,0.0,0.0,0.0,0.0,0.0,0.0,0.0,0.0,0.0,0.0,0.0,0.0,0.0,0.0,0.0,0.0,0.0,0.0,0.0,0.0,0.0,0.0,0.0,0.0,0.0,0.0,0.0,0.0,0.0,0.0,0.0,0.0,2.7747812055167742e-05,4.201518095214851e-06,4.292172161513008e-05,1.745793724694522e-06,0.0,0.0,0.0,0.0,0.00039842777187004685,-0.0004892738652415574,-0.000614267191849649,7.376348094112473e-06,0.0004463936493266374,-3.86430838261731e-06,-0.0005232219700701535,0.00044328573858365417,-0.18158452212810516,0.15165697038173676,9.302428245544434,-0.3131672143936157,0.10772597044706345,0.02500123158097267,0.0,0.0,0.0,0.07760599255561829,-0.13622762262821198,9.259453773498535,0.27756941318511963,0.03937634825706482,0.02176019735634327,0.0,0.0,0.0,0.07486049830913544,-7.6894025802612305,9.348306655883789,0.9240167737007141,-0.6715666651725769,-0.016632558777928352,0.0,0.0,0.0,-0.2810415029525757,-9.178038597106934,4.832998275756836,0.5588991045951843,-0.4686330556869507,0.10558918863534927,0.0,0.0,0.0,0.0,0.0,0.0,0.0,0.0,0.0,0.0,0.0,0.0,0.0,0.0,0.0,0.0,0.0,0.0,0.0,0.0,0.0,0.0,0.0,0.0,0.0,0.0,0.0,0.0,0.0,0.0,0.0,0.0,0.0,0.0,0.0,0.0,0.0,0.0,0.0,-0.2268204540014267,0.06955277174711227,9.428790092468262,-0.18954233825206757,-0.003560846671462059,-0.03216594457626343,0.0,0.0,0.0,0.20482517778873444,-0.048585377633571625,9.512115478515625,0.06930365413427353,0.2797999382019043,-0.004560576286166906,0.0,0.0,0.0,0.04044753685593605,-0.15244294703006744,9.4896240234375,-0.18154992163181305,0.10624787211418152,0.0517788827419281,0.0,0.0,0.0,5.495131969451904,-2.6653037071228027,10.002164840698242,-1.5942423343658447,1.0880533456802368,0.4729759097099304,0.0,0.0,0.0,-0.204752579331398,-0.021584119647741318,9.519261360168457,0.19907468557357788,-0.08283491432666779,0.0693950355052948,0.0,0.0,0.0,-6.841883659362793,-0.5221999287605286,9.18836498260498,-1.4794691801071167,-0.8772244453430176,0.6319780349731445,0.0,0.0,0.0,0.049165766686201096,-0.21703806519508362,9.138704299926758,0.0185675211250782,-0.06822063028812408,0.04587189108133316,0.0,0.0,0.0,-0.055683333426713943,0.11534483730792999,9.491401672363281,0.04715648293495178,0.0542755089700222,-0.002778818132355809,0.0,0.0,0.0
0.022,0.0,0.0,0.0,0.0,0.0,0.0,0.0,0.0,0.0,0.0,0.0,0.0,9.589237213134766,-0.7727092504501343,-192.9791259765625,9655.7001953125,24321.8984375,-413.17828369140625,0.0,0.0,0.0,0.0,0.0,0.0,0.0048828125,0.0054931640625,0.00701904296875,0.00244140625,0.003662109375,0.0042724609375,0.0,0.0,0.0,0.0,0.0,0.0,0.0,0.0,0.0,0.0,0.0,0.0,0.0,0.0,0.0,0.0,0.0,0.0,0.0,0.0,0.0,0.0,0.0,0.0,0.0,0.0,0.0,0.0,0.0,0.0,0.0,0.0,0.0,0.0,0.0,0.0,0.0,0.0,0.0,0.0,0.0,0.0,0.0,0.0,0.0,0.0,0.0,0.0,0.0,0.0,0.0,0.0,0.0,0.0,0.0,0.0,0.0,0.0,0.0,0.0,0.0,0.0,0.0,0.0,8.095700468402356e-05,8.451106623397209e-07,7.274029485415667e-05,1.1109530532849021e-05,0.0,0.0,0.0,0.0,0.0004360498278401792,-0.0004953771131113172,-0.000630600901786238,4.53810571343638e-06,0.00045835808850824833,-3.694231281770044e-06,-0.0006375329685397446,0.0005544364685192704,-0.18118146061897278,0.1522696316242218,9.300848007202148,-0.31302568316459656,0.10766325891017914,0.0247969850897789,0.0,0.0,0.0,0.07694496959447861,-0.13566333055496216,9.257140159606934,0.2775532901287079,0.03937634825706482,0.02195907011628151,0.0,0.0,0.0,0.08183347433805466,-7.679326057434082,9.33957576751709,0.916065514087677,-0.6739423871040344,-0.016847554594278336,0.0,0.0,0.0,-0.3058220446109772,-9.173919677734375,4.846001148223877,0.5480884313583374,-0.46559447050094604,0.10720880329608917,0.0,0.0,0.0,0.0,0.0,0.0,0.0,0.0,0.0,0.0,0.0,0.0,0.0,0.0,0.0,0.0,0.0,0.0,0.0,0.0,0.0,0.0,0.0,0.0,0.0,0.0,0.0,0.0,0.0,0.0,0.0,0.0,0.0,0.0,0.0,0.0,0.0,0.0,0.0,-0.22731220722198486,0.07085064053535461,9.426621437072754,-0.1894688904285431,-0.003508888417854905,-0.03210323676466942,0.0,0.0,0.0,0.20510733127593994,-0.04790016636252403,9.512655258178711,0.06931440532207489,0.2799575924873352,-0.00450324360281229,0.0,0.0,0.0,0.041342347860336304,-0.15274927020072937,9.49028491973877,-0.18159650266170502,0.10631595551967621,0.05183083936572075,0.0,0.0,0.0,5.397768020629883,-2.6483912467956543,10.010250091552734,-1.5894640684127808,1.1554667949676514,0.4706055819988251,0.0,0.0,0.0,-0.20319673418998718,-0.022503111511468887,9.518882751464844,0.19908006489276886,-0.08290299773216248,0.06924811750650406,0.0,0.0,0.0,-6.697352886199951,-0.5575727224349976,9.185850143432617,-1.4986556768417358,-0.9331357479095459,0.630641520023346,0.0,0.0,0.0,0.04852892458438873,-0.21788451075553894,9.139622688293457,0.01876639388501644,-0.06814717501401901,0.04579843208193779,0.0,0.0,0.0,-0.056650690734386444,0.11317633837461472,9.491095542907715,0.04693611338734627,0.0542755089700222,-0.002909607719630003,0.0,0.0,0.0
