Time,Force.Fx1,Force.Fy1,Force.Fz1,Moment.Mx1,Moment.My1,Moment.Mz1,Force.Fx2,Force.Fy2,Force.Fz2,Moment.Mx2,Moment.My2,Moment.Mz2,Force.Fx3,Force.Fy3,Force.Fz3,Moment.Mx3,Moment.My3,Moment.Mz3,Force.Fx4,Force.Fy4,Force.Fz4,Moment.Mx4,Moment.My4,Moment.Mz4,Raw.Pin 9,Raw.Pin 10,Raw.Pin 11,Raw.Pin 12,Raw.Pin 13,Raw.Pin 14,Sensor 1.EMG1,Sensor 10.EMG10,Sensor 11.EMG11,Sensor 12.EMG12,Sensor 13.EMG13,Sensor 14.EMG14,Sensor 15.EMG15,Sensor 16.EMG16,Sensor 2.EMG2,Sensor 3.EMG3,Sensor 4.EMG4,Sensor 5.EMG5,Sensor 6.EMG6,Sensor 7.EMG7,Sensor 8.EMG8,Sensor 9.EMG9,Sensor 1.ACCX1,Sensor 1.ACCY1,Sensor 1.ACCZ1,Sensor 10.ACCX10,Sensor 10.ACCY10,Sensor 10.ACCZ10,Sensor 11.ACCX11,Sensor 11.ACCY11,Sensor 11.ACCZ11,Sensor 12.ACCX12,Sensor 12.ACCY12,Sensor 12.ACCZ12,Sensor 13.ACCX13,Sensor 13.ACCY13,Sensor 13.ACCZ13,Sensor 14.ACCX14,Sensor 14.ACCY14,Sensor 14.ACCZ14,Sensor 15.ACCX15,Sensor 15.ACCY15,Sensor 15.ACCZ15,Sensor 16.ACCX16,Sensor 16.ACCY16,Sensor 16.ACCZ16,Sensor 2.ACCX2,Sensor 2.ACCY2,Sensor 2.ACCZ2,Sensor 3.ACCX3,Sensor 3.ACCY3,Sensor 3.ACCZ3,Sensor 4.ACCX4,Sensor 4.ACCY4,Sensor 4.ACCZ4,Sensor 5.ACCX5,Sensor 5.ACCY5,Sensor 5.ACCZ5,Sensor 6.ACCX6,Sensor 6.ACCY6,Sensor 6.ACCZ6,Sensor 7.ACCX7,Sensor 7.ACCY7,Sensor 7.ACCZ7,Sensor 8.ACCX8,Sensor 8.ACCY8,Sensor 8.ACCZ8,Sensor 9.ACCX9,Sensor 9.ACCY9,Sensor 9.ACCZ9,Sensor 1.IM EMG1,Sensor 10.IM EMG10,Sensor 11.IM EMG11,Sensor 12.IM EMG12,Sensor 13.IM EMG13,Sensor 14.IM EMG14,Sensor 15.IM EMG15,Sensor 16.IM EMG16,Sensor 2.IM EMG2,Sensor 3.IM EMG3,Sensor 4.IM EMG4,Sensor 5.IM EMG5,Sensor 6.IM EMG6,Sensor 7.IM EMG7,Sensor 8.IM EMG8,Sensor 9.IM EMG9,Sensor 1 Acc.ACCX1,Sensor 1 Acc.ACCY1,Sensor 1 Acc.ACCZ1,Sensor 1 Gyro.GYROX1,Sensor 1 Gyro.GYROY1,Sensor 1 Gyro.GYROZ1,Sensor 1 Mag.MAGX1,Sensor 1 Mag.MAGY1,Sensor 1 Mag.MAGZ1,Sensor 10 Acc.ACCX10,Sensor 10 Acc.ACCY10,Sensor 10 Acc.ACCZ10,Sensor 10 Gyro.GYROX10,Sensor 10 Gyro.GYROY10,Sensor 10 Gyro.GYROZ10,Sensor 10 Mag.MAGX10,Sensor 10 Mag.MAGY10,Sensor 10 Mag.MAGZ10,Sensor 11 Acc.ACCX11,Sensor 11 Acc.ACCY11,Sensor 11 Acc.ACCZ11,Sensor 11 Gyro.GYROX11,Sensor 11 Gyro.GYROY11,Sensor 11 Gyro.GYROZ11,Sensor 11 Mag.MAGX11,Sensor 11 Mag.MAGY11,Sensor 11 Mag.MAGZ11,Sensor 12 Acc.ACCX12,Sensor 12 Acc.ACCY12,Sensor 12 Acc.ACCZ12,Sensor 12 Gyro.GYROX12,Sensor 12 Gyro.GYROY12,Sensor 12 Gyro.GYROZ12,Sensor 12 Mag.MAGX12,Sensor 12 Mag.MAGY12,Sensor 12 Mag.MAGZ12,Sensor 13 Acc.ACCX13,Sensor 13 Acc.ACCY13,Sensor 13 Acc.ACCZ13,Sensor 13 Gyro.GYROX13,Sensor 13 Gyro.GYROY13,Sensor 13 Gyro.GYROZ13,Sensor 13 Mag.MAGX13,Sensor 13 Mag.MAGY13,Sensor 13 Mag.MAGZ13,Sensor 14 Acc.ACCX14,Sensor 14 Acc.ACCY14,Sensor 14 Acc.ACCZ14,Sensor 14 Gyro.GYROX14,Sensor 14 Gyro.GYROY14,Sensor 14 Gyro.GYROZ14,Sensor 14 Mag.MAGX14,Sensor 14 Mag.MAGY14,Sensor 14 Mag.MAGZ14,Sensor 15 Acc.ACCX15,Sensor 15 Acc.ACCY15,Sensor 15 Acc.ACCZ15,Sensor 15 Gyro.GYROX15,Sensor 15 Gyro.GYROY15,Sensor 15 Gyro.GYROZ15,Sensor 15 Mag.MAGX15,Sensor 15 Mag.MAGY15,Sensor 15 Mag.MAGZ15,Sensor 16 Acc.ACCX16,Sensor 16 Acc.ACCY16,Sensor 16 Acc.ACCZ16,Sensor 16 Gyro.GYROX16,Sensor 16 Gyro.GYROY16,Sensor 16 Gyro.GYROZ16,Sensor 16 Mag.MAGX16,Sensor 16 Mag.MAGY16,Sensor 16 Mag.MAGZ16,Sensor 2 Acc.ACCX2,Sensor 2 Acc.ACCY2,Sensor 2 Acc.ACCZ2,Sensor 2 Gyro.GYROX2,Sensor 2 Gyro.GYROY2,Sensor 2 Gyro.GYROZ2,Sensor 2 Mag.MAGX2,Sensor 2 Mag.MAGY2,Sensor 2 Mag.MAGZ2,Sensor 3 Acc.ACCX3,Sensor 3 Acc.ACCY3,Sensor 3 Acc.ACCZ3,Sensor 3 Gyro.GYROX3,Sensor 3 Gyro.GYROY3,Sensor 3 Gyro.GYROZ3,Sensor 3 Mag.MAGX3,Sensor 3 Mag.MAGY3,Sensor 3 Mag.MAGZ3,Sensor 4 Acc.ACCX4,Sensor 4 Acc.ACCY4,Sensor 4 Acc.ACCZ4,Sensor 4 Gyro.GYROX4,Sensor 4 Gyro.GYROY4,Sensor 4 Gyro.GYROZ4,Sensor 4 Mag.MAGX4,Sensor 4 Mag.MAGY4,Sensor 4 Mag.MAGZ4,Sensor 5 Acc.ACCX5,Sensor 5 Acc.ACCY5,Sensor 5 Acc.ACCZ5,Sensor 5 Gyro.GYROX5,Sensor 5 Gyro.GYROY5,Sensor 5 Gyro.GYROZ5,Sensor 5 Mag.MAGX5,Sensor 5 Mag.MAGY5,Sensor 5 Mag.MAGZ5,Sensor 6 Acc.ACCX6,Sensor 6 Acc.ACCY6,Sensor 6 Acc.ACCZ6,Sensor 6 Gyro.GYROX6,Sensor 6 Gyro.GYROY6,Sensor 6 Gyro.GYROZ6,Sensor 6 Mag.MAGX6,Sensor 6 Mag.MAGY6,Sensor 6 Mag.MAGZ6,Sensor 7 Acc.ACCX7,Sensor 7 Acc.ACCY7,Sensor 7 Acc.ACCZ7,Sensor 7 Gyro.GYROX7,Sensor 7 Gyro.GYROY7,Sensor 7 Gyro.GYROZ7,Sensor 7 Mag.MAGX7,Sensor 7 Mag.MAGY7,Sensor 7 Mag.MAGZ7,Sensor 8 Acc.ACCX8,Sensor 8 Acc.ACCY8,Sensor 8 Acc.ACCZ8,Sensor 8 Gyro.GYROX8,Sensor 8 Gyro.GYROY8,Sensor 8 Gyro.GYROZ8,Sensor 8 Mag.MAGX8,Sensor 8 Mag.MAGY8,Sensor 8 Mag.MAGZ8,Sensor 9 Acc.ACCX9,Sensor 9 Acc.ACCY9,Sensor 9 Acc.ACCZ9,Sensor 9 Gyro.GYROX9,Sensor 9 Gyro.GYROY9,Sensor 9 Gyro.GYROZ9,Sensor 9 Mag.MAGX9,Sensor 9 Mag.MAGY9,Sensor 9 Mag.MAGZ9
0.000,0.0,0.0,0.0,0.0,0.0,0.0,0.0,0.0,0.0,0.0,0.0,0.0,6.842655181884766,2.889400005340576,-188.0963134765625,10754.3330078125,20781.859375,-779.389404296875,0.0,0.0,0.0,0.0,0.0,0.0,0.00518798828125,0.0048828125,0.00701904296875,0.0018310546875,0.00335693359375,0.00396728515625,0.0,0.0,0.0,0.0,0.0,0.0,0.0,0.0,0.0,0.0,0.0,0.0,0.0,0.0,0.0,0.0,0.0,0.0,0.0,0.0,0.0,0.0,0.0,0.0,0.0,0.0,0.0,0.0,0.0,0.0,0.0,0.0,0.0,0.0,0.0,0.0,0.0,0.0,0.0,0.0,0.0,0.0,0.0,0.0,0.0,0.0,0.0,0.0,0.0,0.0,0.0,0.0,0.0,0.0,0.0,0.0,0.0,0.0,0.0,0.0,0.0,0.0,0.0,0.0,0.00021987830405123532,-1.069067366188392e-05,-5.0737558922264725e-05,1.5067521417222451e-05,0.0,0.0,0.0,0.0,0.000449719897005707,-0.0003949509118683636,-0.0005043311975896358,2.083220579152112e-06,0.0003719463711604476,-3.1157514968072064e-07,-0.0008826496195979416,0.0007557364297099411,-0.16710957884788513,0.14893734455108643,9.316791534423828,-0.312774658203125,0.10792574286460876,0.02510792575776577,0.0,0.0,0.0,0.08183825761079788,-0.14559027552604675,9.261305809020996,0.2747937738895416,0.038414351642131805,0.019045639783143997,0.0,0.0,0.0,-0.7500333189964294,-8.403499603271484,9.004974365234375,1.1615394353866577,0.3216491639614105,0.2491215616464615,0.0,0.0,0.0,-3.318598508834839,-7.873339653015137,7.119887828826904,0.7406173348426819,0.25192543864250183,0.3131743371486664,0.0,0.0,0.0,0.0,0.0,0.0,0.0,0.0,0.0,0.0,0.0,0.0,0.0,0.0,0.0,0.0,0.0,0.0,0.0,0.0,0.0,0.0,0.0,0.0,0.0,0.0,0.0,0.0,0.0,0.0,0.0,0.0,0.0,0.0,0.0,0.0,0.0,0.0,0.0,-0.20196355879306793,0.05603178218007088,9.46142578125,-0.18964481353759766,-0.0035212081857025623,-0.034998103976249695,0.0,0.0,0.0,0.2182546705007553,-0.03983457386493683,9.492497444152832,0.0708778128027916,0.2790479362010956,-0.005323858931660652,0.0,0.0,0.0,0.04880397394299507,-0.14032961428165436,9.494410514831543,-0.181651309132576,0.10727141052484512,0.05023398622870445,0.0,0.0,0.0,-1.7680881023406982,-2.808725595474243,9.529170036315918,-1.521925449371338,-0.24093806743621826,-0.8094056248664856,0.0,0.0,0.0,-0.22164645791053772,-0.03436945006251335,9.518874168395996,0.19910968840122223,-0.0831172913312912,0.07130857557058334,0.0,0.0,0.0,-2.1620612144470215,-0.9781854152679443,9.911479949951172,-1.3473690748214722,0.5041972994804382,0.28225576877593994,0.0,0.0,0.0,0.04165428504347801,-0.22409816086292267,9.103276252746582,0.0158556941896677,-0.06344910711050034,0.048943452537059784,0.0,0.0,0.0,-0.03679216653108597,0.13455983996391296,9.497298240661621,0.048846688121557236,0.056183114647865295,-0.00010769002255983651,0.0,0.0,0.0
0.001,0.0,0.0,0.0,0.0,0.0,0.0,0.0,0.0,0.0,0.0,0.0,0.0,6.842655181884766,2.736812114715576,-188.0963134765625,10571.2275390625,20842.89453125,-733.613037109375,0.0,0.0,0.0,0.0,0.0,0.0,0.00457763671875,0.0054931640625,0.00701904296875,0.00244140625,0.00274658203125,0.0042724609375,0.0,0.0,0.0,0.0,0.0,0.0,0.0,0.0,0.0,0.0,0.0,0.0,0.0,0.0,0.0,0.0,0.0,0.0,0.0,0.0,0.0,0.0,0.0,0.0,0.0,0.0,0.0,0.0,0.0,0.0,0.0,0.0,0.0,0.0,0.0,0.0,0.0,0.0,0.0,0.0,0.0,0.0,0.0,0.0,0.0,0.0,0.0,0.0,0.0,0.0,0.0,0.0,0.0,0.0,0.0,0.0,0.0,0.0,0.0,0.0,0.0,0.0,0.0,0.0,0.0002488068421371281,-1.2755146599374712e-05,-9.585876250639558e-05,-8.569950296077877e-07,0.0,0.0,0.0,0.0,0.0004193481581751257,-0.0003384274314157665,-0.0004220568807795644,2.797346951410873e-06,0.0003153113939333707,2.293051011292846e-07,-0.0008681738981977105,0.0007571536116302013,-0.16680403053760529,0.14926746487617493,9.315899848937988,-0.31270673871040344,0.10821375995874405,0.024830831214785576,0.0,0.0,0.0,0.08204551786184311,-0.14681246876716614,9.261709213256836,0.2749459743499756,0.03847133740782738,0.01897227019071579,0.0,0.0,0.0,-0.7521369457244873,-8.409747123718262,9.003604888916016,1.1559206247329712,0.3170529901981354,0.25352445244789124,0.0,0.0,0.0,-3.283395290374756,-7.886849880218506,7.127776622772217,0.7440134882926941,0.24726347625255585,0.3099636435508728,0.0,0.0,0.0,0.0,0.0,0.0,0.0,0.0,0.0,0.0,0.0,0.0,0.0,0.0,0.0,0.0,0.0,0.0,0.0,0.0,0.0,0.0,0.0,0.0,0.0,0.0,0.0,0.0,0.0,0.0,0.0,0.0,0.0,0.0,0.0,0.0,0.0,0.0,0.0,-0.1993963122367859,0.05516428127884865,9.461169242858887,-0.18977516889572144,-0.003735855920240283,-0.03490288928151131,0.0,0.0,0.0,0.216885045170784,-0.040898654609918594,9.490663528442383,0.07061710208654404,0.2791946828365326,-0.005329320207238197,0.0,0.0,0.0,0.049316782504320145,-0.14127083122730255,9.49375057220459,-0.18143120408058167,0.1071355938911438,0.05036980286240578,0.0,0.0,0.0,-1.7815247774124146,-2.816732883453369,9.52311897277832,-1.5233982801437378,-0.23798950016498566,-0.7992295622825623,0.0,0.0,0.0,-0.22241567075252533,-0.03180219978094101,9.518592834472656,0.19916121661663055,-0.08318520337343216,0.07131949812173843,0.0,0.0,0.0,-2.1273887157440186,-0.9998633861541748,9.891472816467285,-1.3526538610458374,0.49702104926109314,0.28679755330085754,0.0,0.0,0.0,0.04076221212744713,-0.22351163625717163,9.103655815124512,0.01578778587281704,-0.06388386338949203,0.0489216074347496,0.0,0.0,0.0,-0.03575265780091286,0.1348653882741928,9.495489120483398,0.048778779804706573,0.05603637546300888,-0.00017559839761815965,0.0,0.0,0.0
0.001,0.0,0.0,0.0,0.0,0.0,0.0,0.0,0.0,0.0,0.0,0.0,0.0,6.842655181884766,2.584224224090576,-188.0963134765625,10388.1220703125,20903.9296875,-687.836669921875,0.0,0.0,0.0,0.0,0.0,0.0,0.00457763671875,0.0054931640625,0.00701904296875,0.00244140625,0.00274658203125,0.0042724609375,0.0,0.0,0.0,0.0,0.0,0.0,0.0,0.0,0.0,0.0,0.0,0.0,0.0,0.0,0.0,0.0,0.0,0.0,0.0,0.0,0.0,0.0,0.0,0.0,0.0,0.0,0.0,0.0,0.0,0.0,0.0,0.0,0.0,0.0,0.0,0.0,0.0,0.0,0.0,0.0,0.0,0.0,0.0,0.0,0.0,0.0,0.0,0.0,0.0,0.0,0.0,0.0,0.0,0.0,0.0,0.0,0.0,0.0,0.0,0.0,0.0,0.0,0.0,0.0,0.0002689054817892611,-1.447199065296445e-05,-0.0001247388863703236,-1.2323185728746466e-05,0.0,0.0,0.0,0.0,0.0003772658237721771,-0.0002729413390625268,-0.0003257696807850152,4.859341515839333e-07,0.0002469270839355886,-1.4493259641312761e-06,-0.0008295543375425041,0.0007346404017880559,-0.16649848222732544,0.14959758520126343,9.315007209777832,-0.3126388490200043,0.10850177705287933,0.024553736671805382,0.0,0.0,0.0,0.08225277066230774,-0.14803466200828552,9.262113571166992,0.27509817481040955,0.03852832317352295,0.018898900598287582,0.0,0.0,0.0,-0.7542405128479004,-8.415994644165039,9.002235412597656,1.1503016948699951,0.31245681643486023,0.2579273581504822,0.0,0.0,0.0,-3.248192071914673,-7.900360107421875,7.135665416717529,0.7474095821380615,0.24260154366493225,0.3067529499530792,0.0,0.0,0.0,0.0,0.0,0.0,0.0,0.0,0.0,0.0,0.0,0.0,0.0,0.0,0.0,0.0,0.0,0.0,0.0,0.0,0.0,0.0,0.0,0.0,0.0,0.0,0.0,0.0,0.0,0.0,0.0,0.0,0.0,0.0,0.0,0.0,0.0,0.0,0.0,-0.19682906568050385,0.05429678037762642,9.460912704467773,-0.18990552425384521,-0.003950503654778004,-0.03480767458677292,0.0,0.0,0.0,0.2155154049396515,-0.04196273535490036,9.48883056640625,0.07035639137029648,0.2793413996696472,-0.0053347814828157425,0.0,0.0,0.0,0.04982958734035492,-0.14221204817295074,9.49308967590332,-0.18121109902858734,0.10699977725744247,0.0505056194961071,0.0,0.0,0.0,-1.7949614524841309,-2.824740171432495,9.517067909240723,-1.5248711109161377,-0.23504093289375305,-0.7890534996986389,0.0,0.0,0.0,-0.22318488359451294,-0.029234949499368668,9.518312454223633,0.19921272993087769,-0.08325310796499252,0.07133042067289352,0.0,0.0,0.0,-2.0927164554595947,-1.0215413570404053,9.871465682983398,-1.357938528060913,0.4898448586463928,0.29133933782577515,0.0,0.0,0.0,0.039870139211416245,-0.2229251116514206,9.104034423828125,0.015719877555966377,-0.06431861966848373,0.04889976233243942,0.0,0.0,0.0,-0.034713149070739746,0.13517093658447266,9.493680953979492,0.04871087148785591,0.055889636278152466,-0.0002435067726764828,0.0,0.0,0.0
0.002,0.0,0.0,0.0,0.0,0.0,0.0,0.0,0.0,0.0,0.0,0.0,0.0,6.995243072509766,2.889400005340576,-188.4014892578125,10571.2275390625,20842.89453125,-642.060302734375,0.0,0.0,0.0,0.0,0.0,0.0,0.00518798828125,0.0042724609375,0.0067138671875,0.0018310546875,0.00274658203125,0.00396728515625,0.0,0.0,0.0,0.0,0.0,0.0,0.0,0.0,0.0,0.0,0.0,0.0,0.0,0.0,0.0,0.0,0.0,0.0,0.0,0.0,0.0,0.0,0.0,0.0,0.0,0.0,0.0,0.0,0.0,0.0,0.0,0.0,0.0,0.0,0.0,0.0,0.0,0.0,0.0,0.0,0.0,0.0,0.0,0.0,0.0,0.0,0.0,0.0,0.0,0.0,0.0,0.0,0.0,0.0,0.0,0.0,0.0,0.0,0.0,0.0,0.0,0.0,0.0,0.0,0.00027805115678347647,-1.5749244994367473e-05,-0.00013549387222155929,-1.4051742255105637e-05,0.0,0.0,0.0,0.0,0.00032037863275036216,-0.00019937028991989791,-0.00021711480803787708,-2.08806727641786e-06,0.0001689478085609153,-5.279093784338329e-08,-0.0007652471540495753,0.0006894193938933313,-0.1661929339170456,0.14992770552635193,9.314115524291992,-0.3125709295272827,0.10878979414701462,0.02427664026618004,0.0,0.0,0.0,0.08246003091335297,-0.1492568552494049,9.262516975402832,0.2752503752708435,0.03858530893921852,0.018825531005859375,0.0,0.0,0.0,-0.7563440799713135,-8.422242164611816,9.00086498260498,1.1446828842163086,0.3078606128692627,0.26233023405075073,0.0,0.0,0.0,-3.2129886150360107,-7.913870334625244,7.143553733825684,0.7508057355880737,0.23793959617614746,0.30354222655296326,0.0,0.0,0.0,0.0,0.0,0.0,0.0,0.0,0.0,0.0,0.0,0.0,0.0,0.0,0.0,0.0,0.0,0.0,0.0,0.0,0.0,0.0,0.0,0.0,0.0,0.0,0.0,0.0,0.0,0.0,0.0,0.0,0.0,0.0,0.0,0.0,0.0,0.0,0.0,-0.1942618191242218,0.05342927947640419,9.46065616607666,-0.190035879611969,-0.004165151156485081,-0.03471245989203453,0.0,0.0,0.0,0.21414577960968018,-0.043026816099882126,9.486997604370117,0.07009568065404892,0.27948814630508423,-0.005340242758393288,0.0,0.0,0.0,0.05034239590167999,-0.14315326511859894,9.492429733276367,-0.18099099397659302,0.10686396062374115,0.050641436129808426,0.0,0.0,0.0,-1.8083981275558472,-2.832747459411621,9.511016845703125,-1.5263439416885376,-0.23209236562252045,-0.7788774371147156,0.0,0.0,0.0,-0.22395409643650055,-0.026667697355151176,9.518031120300293,0.199264258146286,-0.08332102000713348,0.07134134322404861,0.0,0.0,0.0,-2.058043956756592,-1.0432194471359253,9.851458549499512,-1.3632233142852783,0.4826686382293701,0.29588115215301514,0.0,0.0,0.0,0.03897806629538536,-0.22233858704566956,9.104413986206055,0.015651969239115715,-0.06475337594747543,0.04887791723012924,0.0,0.0,0.0,-0.033673640340566635,0.1354764848947525,9.49187183380127,0.04864296317100525,0.05574289709329605,-0.00031141514773480594,0.0,0.0,0.0
0.002,0.0,0.0,0.0,0.0,0.0,0.0,0.0,0.0,0.0,0.0,0.0,0.0,7.147830963134766,3.194575786590576,-188.7066650390625,10754.3330078125,20781.859375,-596.283935546875,0.0,0.0,0.0,0.0,0.0,0.0,0.00518798828125,0.0042724609375,0.0067138671875,0.0018310546875,0.00274658203125,0.00396728515625,0.0,0.0,0.0,0.0,0.0,0.0,0.0,0.0,0.0,0.0,0.0,0.0,0.0,0.0,0.0,0.0,0.0,0.0,0.0,0.0,0.0,0.0,0.0,0.0,0.0,0.0,0.0,0.0,0.0,0.0,0.0,0.0,0.0,0.0,0.0,0.0,0.0,0.0,0.0,0.0,0.0,0.0,0.0,0.0,0.0,0.0,0.0,0.0,0.0,0.0,0.0,0.0,0.0,0.0,0.0,0.0,0.0,0.0,0.0,0.0,0.0,0.0,0.0,0.0,0.00027459696866571903,-1.6375228369724937e-05,-0.00012619227345567197,-1.1917452866327949e-05,0.0,0.0,0.0,0.0,0.0002465552825015038,-0.00011670238745864481,-9.589774708729237e-05,-3.1276317713491153e-06,8.372109004994854e-05,4.398953933559824e-06,-0.000670668960083276,0.0006182979559525847,-0.16588738560676575,0.15025782585144043,9.313222885131836,-0.31250301003456116,0.1090778112411499,0.023999545723199844,0.0,0.0,0.0,0.0826672911643982,-0.1504790484905243,9.262921333312988,0.27540257573127747,0.03864229470491409,0.018752161413431168,0.0,0.0,0.0,-0.7584477066993713,-8.428489685058594,8.999495506286621,1.139064073562622,0.30326443910598755,0.2667331397533417,0.0,0.0,0.0,-3.1777853965759277,-7.9273810386657715,7.151442527770996,0.7542018890380859,0.23327764868736267,0.3003315329551697,0.0,0.0,0.0,0.0,0.0,0.0,0.0,0.0,0.0,0.0,0.0,0.0,0.0,0.0,0.0,0.0,0.0,0.0,0.0,0.0,0.0,0.0,0.0,0.0,0.0,0.0,0.0,0.0,0.0,0.0,0.0,0.0,0.0,0.0,0.0,0.0,0.0,0.0,0.0,-0.19169455766677856,0.05256177857518196,9.460399627685547,-0.19016623497009277,-0.004379798658192158,-0.03461724519729614,0.0,0.0,0.0,0.21277615427970886,-0.04409089684486389,9.485163688659668,0.06983496993780136,0.27963489294052124,-0.005345704033970833,0.0,0.0,0.0,0.050855204463005066,-0.14409448206424713,9.491769790649414,-0.1807708740234375,0.10672814399003983,0.05077725276350975,0.0,0.0,0.0,-1.8218348026275635,-2.840754747390747,9.504965782165527,-1.5278167724609375,-0.22914379835128784,-0.7687013745307922,0.0,0.0,0.0,-0.22472330927848816,-0.024100445210933685,9.517749786376953,0.19931578636169434,-0.08338892459869385,0.0713522657752037,0.0,0.0,0.0,-2.023371696472168,-1.0648974180221558,9.831451416015625,-1.3685081005096436,0.4754924178123474,0.30042293667793274,0.0,0.0,0.0,0.03808598965406418,-0.22175206243991852,9.104793548583984,0.015584060922265053,-0.06518813222646713,0.04885607212781906,0.0,0.0,0.0,-0.032634131610393524,0.13578203320503235,9.490062713623047,0.04857505485415459,0.055596157908439636,-0.0003793235227931291,0.0,0.0,0.0
0.003,0.0,0.0,0.0,0.0,0.0,0.0,0.0,0.0,0.0,0.0,0.0,0.0,6.842655181884766,2.889400005340576,-188.7066650390625,10662.7802734375,20903.9296875,-733.613037109375,0.0,0.0,0.0,0.0,0.0,0.0,0.00457763671875,0.00457763671875,0.0067138671875,0.00213623046875,0.0030517578125,0.00396728515625,0.0,0.0,0.0,0.0,0.0,0.0,0.0,0.0,0.0,0.0,0.0,0.0,0.0,0.0,0.0,0.0,0.0,0.0,0.0,0.0,0.0,0.0,0.0,0.0,0.0,0.0,0.0,0.0,0.0,0.0,0.0,0.0,0.0,0.0,0.0,0.0,0.0,0.0,0.0,0.0,0.0,0.0,0.0,0.0,0.0,0.0,0.0,0.0,0.0,0.0,0.0,0.0,0.0,0.0,0.0,0.0,0.0,0.0,0.0,0.0,0.0,0.0,0.0,0.0,0.0002611961681395769,-1.6388667063438334e-05,-0.00010327497875550762,-1.1439174159022514e-05,0.0,0.0,0.0,0.0,0.0001624751603230834,-2.931513881776482e-05,3.082867624470964e-05,-3.76300840798649e-06,-2.3749671527184546e-06,7.763958819850814e-06,-0.0005513930809684098,0.0005243197665549815,-0.1655818372964859,0.15058794617652893,9.312331199645996,-0.312435120344162,0.10936582833528519,0.02372245118021965,0.0,0.0,0.0,0.08287455141544342,-0.15170124173164368,9.263324737548828,0.2755547761917114,0.038699280470609665,0.01867879182100296,0.0,0.0,0.0,-0.7605512738227844,-8.434738159179688,8.998126029968262,1.133445143699646,0.2986682653427124,0.27113601565361023,0.0,0.0,0.0,-3.1425821781158447,-7.940891265869141,7.159331321716309,0.7575979828834534,0.22861571609973907,0.2971208393573761,0.0,0.0,0.0,0.0,0.0,0.0,0.0,0.0,0.0,0.0,0.0,0.0,0.0,0.0,0.0,0.0,0.0,0.0,0.0,0.0,0.0,0.0,0.0,0.0,0.0,0.0,0.0,0.0,0.0,0.0,0.0,0.0,0.0,0.0,0.0,0.0,0.0,0.0,0.0,-0.18912731111049652,0.05169427767395973,9.46014404296875,-0.19029659032821655,-0.004594446159899235,-0.034522030502557755,0.0,0.0,0.0,0.21140651404857635,-0.04515497758984566,9.483330726623535,0.0695742592215538,0.27978163957595825,-0.005351165309548378,0.0,0.0,0.0,0.05136801302433014,-0.14503569900989532,9.491108894348145,-0.18055076897144318,0.1065923273563385,0.050913069397211075,0.0,0.0,0.0,-1.8352714776992798,-2.848762035369873,9.49891471862793,-1.5292896032333374,-0.22619524598121643,-0.7585253119468689,0.0,0.0,0.0,-0.22549252212047577,-0.021533194929361343,9.51746940612793,0.19936731457710266,-0.08345683664083481,0.0713631883263588,0.0,0.0,0.0,-1.9886993169784546,-1.0865753889083862,9.811444282531738,-1.3737928867340088,0.4683161973953247,0.30496472120285034,0.0,0.0,0.0,0.037193916738033295,-0.22116553783416748,9.105172157287598,0.01551615260541439,-0.06562288850545883,0.04883422702550888,0.0,0.0,0.0,-0.03159462660551071,0.1360875815153122,9.48825454711914,0.048507146537303925,0.05544941872358322,-0.00044723189785145223,0.0,0.0,0.0
0.003,0.0,0.0,0.0,0.0,0.0,0.0,0.0,0.0,0.0,0.0,0.0,0.0,6.537479400634766,2.584224224090576,-188.7066650390625,10571.2275390625,21026.0,-870.942138671875,0.0,0.0,0.0,0.0,0.0,0.0,0.00457763671875,0.00457763671875,0.0067138671875,0.00213623046875,0.0030517578125,0.00396728515625,0.0,0.0,0.0,0.0,0.0,0.0,0.0,0.0,0.0,0.0,0.0,0.0,0.0,0.0,0.0,0.0,0.0,0.0,0.0,0.0,0.0,0.0,0.0,0.0,0.0,0.0,0.0,0.0,0.0,0.0,0.0,0.0,0.0,0.0,0.0,0.0,0.0,0.0,0.0,0.0,0.0,0.0,0.0,0.0,0.0,0.0,0.0,0.0,0.0,0.0,0.0,0.0,0.0,0.0,0.0,0.0,0.0,0.0,0.0,0.0,0.0,0.0,0.0,0.0,0.00023906440765131265,-1.587698898219969e-05,-9.391007188241929e-05,-4.771138719661394e-06,0.0,0.0,0.0,0.0,7.193876808742061e-05,5.768040136899799e-05,0.00015647526015527546,-6.441432105930289e-06,-8.696704026078805e-05,1.1065103535656817e-05,-0.00040880771121010184,0.0004086779663339257,-0.16527628898620605,0.15091806650161743,9.31143856048584,-0.31236720085144043,0.10965384542942047,0.023445356637239456,0.0,0.0,0.0,0.08308181166648865,-0.15292343497276306,9.263729095458984,0.2757069766521454,0.03875626623630524,0.018605422228574753,0.0,0.0,0.0,-0.7626548409461975,-8.440985679626465,8.996756553649902,1.1278263330459595,0.29407209157943726,0.27553892135620117,0.0,0.0,0.0,-3.1073787212371826,-7.95440149307251,7.167220115661621,0.7609941363334656,0.22395376861095428,0.29391011595726013,0.0,0.0,0.0,0.0,0.0,0.0,0.0,0.0,0.0,0.0,0.0,0.0,0.0,0.0,0.0,0.0,0.0,0.0,0.0,0.0,0.0,0.0,0.0,0.0,0.0,0.0,0.0,0.0,0.0,0.0,0.0,0.0,0.0,0.0,0.0,0.0,0.0,0.0,0.0,-0.18656006455421448,0.0508267767727375,9.459887504577637,-0.19042694568634033,-0.004809093661606312,-0.034426815807819366,0.0,0.0,0.0,0.21003688871860504,-0.04621905833482742,9.481497764587402,0.06931354850530624,0.27992838621139526,-0.005356626585125923,0.0,0.0,0.0,0.05188082158565521,-0.14597691595554352,9.490448951721191,-0.18033066391944885,0.10645651072263718,0.0510488860309124,0.0,0.0,0.0,-1.848708152770996,-2.856769323348999,9.492863655090332,-1.5307624340057373,-0.22324667870998383,-0.7483492493629456,0.0,0.0,0.0,-0.22626173496246338,-0.018965942785143852,9.51718807220459,0.199418842792511,-0.08352474123239517,0.07137411087751389,0.0,0.0,0.0,-1.9540269374847412,-1.1082533597946167,9.791437149047852,-1.379077672958374,0.461139976978302,0.30950653553009033,0.0,0.0,0.0,0.03630184382200241,-0.22057901322841644,9.105551719665527,0.015448244288563728,-0.06605764478445053,0.0488123819231987,0.0,0.0,0.0,-0.03055511601269245,0.13639312982559204,9.486445426940918,0.04843923822045326,0.05530267953872681,-0.0005151403020136058,0.0,0.0,0.0
0.004,0.0,0.0,0.0,0.0,0.0,0.0,0.0,0.0,0.0,0.0,0.0,0.0,6.537479400634766,2.126460552215576,-188.4014892578125,10571.2275390625,20903.9296875,-779.389404296875,0.0,0.0,0.0,0.0,0.0,0.0,0.00457763671875,0.00518798828125,0.00762939453125,0.00274658203125,0.0030517578125,0.00396728515625,0.0,0.0,0.0,0.0,0.0,0.0,0.0,0.0,0.0,0.0,0.0,0.0,0.0,0.0,0.0,0.0,0.0,0.0,0.0,0.0,0.0,0.0,0.0,0.0,0.0,0.0,0.0,0.0,0.0,0.0,0.0,0.0,0.0,0.0,0.0,0.0,0.0,0.0,0.0,0.0,0.0,0.0,0.0,0.0,0.0,0.0,0.0,0.0,0.0,0.0,0.0,0.0,0.0,0.0,0.0,0.0,0.0,0.0,0.0,0.0,0.0,0.0,0.0,0.0,0.0002074720832752064,-1.4714315511810128e-05,-0.00011121398711111397,1.0905594535870478e-05,0.0,0.0,0.0,0.0,-2.3290391254704446e-05,0.0001433448342140764,0.00027734055765904486,-1.0239928087685257e-05,-0.00017184279568027705,1.5649435226805508e-05,-0.0002460226241964847,0.0002733772271312773,-0.1649707406759262,0.15124818682670593,9.310546875,-0.31229931116104126,0.10994186252355576,0.023168262094259262,0.0,0.0,0.0,0.08328906446695328,-0.15414564311504364,9.264132499694824,0.27585917711257935,0.03881325200200081,0.018532052636146545,0.0,0.0,0.0,-0.7647584676742554,-8.447233200073242,8.995387077331543,1.122207522392273,0.2894759178161621,0.2799417972564697,0.0,0.0,0.0,-3.0721755027770996,-7.967911720275879,7.175108909606934,0.7643902897834778,0.2192918211221695,0.29069942235946655,0.0,0.0,0.0,0.0,0.0,0.0,0.0,0.0,0.0,0.0,0.0,0.0,0.0,0.0,0.0,0.0,0.0,0.0,0.0,0.0,0.0,0.0,0.0,0.0,0.0,0.0,0.0,0.0,0.0,0.0,0.0,0.0,0.0,0.0,0.0,0.0,0.0,0.0,0.0,-0.18399281799793243,0.049959275871515274,9.459630966186523,-0.1905573010444641,-0.005023741628974676,-0.03433160111308098,0.0,0.0,0.0,0.20866726338863373,-0.04728313907980919,9.479663848876953,0.06905284523963928,0.2800751030445099,-0.005362087395042181,0.0,0.0,0.0,0.05239362642168999,-0.1469181478023529,9.489789009094238,-0.18011055886745453,0.10632069408893585,0.051184698939323425,0.0,0.0,0.0,-1.8621448278427124,-2.864776611328125,9.486812591552734,-1.5322352647781372,-0.22029811143875122,-0.7381731271743774,0.0,0.0,0.0,-0.227030947804451,-0.01639869250357151,9.516907691955566,0.19947035610675812,-0.08359265327453613,0.07138503342866898,0.0,0.0,0.0,-1.9193545579910278,-1.1299313306808472,9.771430015563965,-1.3843623399734497,0.4539637863636017,0.31404832005500793,0.0,0.0,0.0,0.03540977090597153,-0.2199924886226654,9.105931282043457,0.015380335971713066,-0.06649240106344223,0.04879054054617882,0.0,0.0,0.0,-0.02951560914516449,0.1366986781358719,9.484637260437012,0.0483713299036026,0.05515594407916069,-0.000583048677071929,0.0,0.0,0.0
0.004,0.0,0.0,0.0,0.0,0.0,0.0,0.0,0.0,0.0,0.0,0.0,0.0,6.537479400634766,1.6686969995498657,-188.0963134765625,10571.2275390625,20781.859375,-687.836669921875,0.0,0.0,0.0,0.0,0.0,0.0,0.00457763671875,0.00518798828125,0.00762939453125,0.00274658203125,0.0030517578125,0.00396728515625,0.0,0.0,0.0,0.0,0.0,0.0,0.0,0.0,0.0,0.0,0.0,0.0,0.0,0.0,0.0,0.0,0.0,0.0,0.0,0.0,0.0,0.0,0.0,0.0,0.0,0.0,0.0,0.0,0.0,0.0,0.0,0.0,0.0,0.0,0.0,0.0,0.0,0.0,0.0,0.0,0.0,0.0,0.0,0.0,0.0,0.0,0.0,0.0,0.0,0.0,0.0,0.0,0.0,0.0,0.0,0.0,0.0,0.0,0.0,0.0,0.0,0.0,0.0,0.0,0.0001668938057264313,-1.2764081475324929e-05,-0.0001251814974239096,2.3096701625036076e-05,0.0,0.0,0.0,0.0,-0.00011789213021984324,0.00022545922547578812,0.0003877627896144986,-1.1537857062648982e-05,-0.0002555467654019594,1.780767888703849e-05,-7.704905874561518e-05,0.00012772830086760223,-0.16466519236564636,0.15157830715179443,9.309654235839844,-0.3122313916683197,0.11022987961769104,0.022891167551279068,0.0,0.0,0.0,0.0834963247179985,-0.15536783635616302,9.26453685760498,0.2760113775730133,0.03887023776769638,0.018458683043718338,0.0,0.0,0.0,-0.7668620347976685,-8.45348072052002,8.994017601013184,1.1165885925292969,0.28487974405288696,0.28434470295906067,0.0,0.0,0.0,-3.0369722843170166,-7.981422424316406,7.182997703552246,0.7677863836288452,0.2146298885345459,0.287488728761673,0.0,0.0,0.0,0.0,0.0,0.0,0.0,0.0,0.0,0.0,0.0,0.0,0.0,0.0,0.0,0.0,0.0,0.0,0.0,0.0,0.0,0.0,0.0,0.0,0.0,0.0,0.0,0.0,0.0,0.0,0.0,0.0,0.0,0.0,0.0,0.0,0.0,0.0,0.0,-0.1814255565404892,0.049091774970293045,9.45937442779541,-0.1906876564025879,-0.005238389130681753,-0.03423638641834259,0.0,0.0,0.0,0.20729762315750122,-0.048347219824790955,9.47783088684082,0.06879213452339172,0.2802218496799469,-0.005367548670619726,0.0,0.0,0.0,0.05290643498301506,-0.1478593647480011,9.489128112792969,-0.179890438914299,0.10618487745523453,0.05132051557302475,0.0,0.0,0.0,-1.8755815029144287,-2.872783899307251,9.480761528015137,-1.533708095550537,-0.21734954416751862,-0.7279970645904541,0.0,0.0,0.0,-0.2278001606464386,-0.01383144035935402,9.516626358032227,0.19952188432216644,-0.0836605578660965,0.07139595597982407,0.0,0.0,0.0,-1.8846821784973145,-1.1516093015670776,9.751422882080078,-1.389647126197815,0.446787565946579,0.31859010457992554,0.0,0.0,0.0,0.03451769798994064,-0.21940596401691437,9.10630989074707,0.015312427654862404,-0.06692715734243393,0.04876869544386864,0.0,0.0,0.0,-0.02847610041499138,0.13700422644615173,9.482828140258789,0.04830342158675194,0.055009204894304276,-0.0006509570521302521,0.0,0.0,0.0
0.004,0.0,0.0,0.0,0.0,0.0,0.0,0.0,0.0,0.0,0.0,0.0,0.0,6.690067291259766,2.279048442840576,-187.7911376953125,10754.3330078125,20781.859375,-870.942138671875,0.0,0.0,0.0,0.0,0.0,0.0,0.0048828125,0.00518798828125,0.0067138671875,0.00213623046875,0.00335693359375,0.00457763671875,0.0,0.0,0.0,0.0,0.0,0.0,0.0,0.0,0.0,0.0,0.0,0.0,0.0,0.0,0.0,0.0,0.0,0.0,0.0,0.0,0.0,0.0,0.0,0.0,0.0,0.0,0.0,0.0,0.0,0.0,0.0,0.0,0.0,0.0,0.0,0.0,0.0,0.0,0.0,0.0,0.0,0.0,0.0,0.0,0.0,0.0,0.0,0.0,0.0,0.0,0.0,0.0,0.0,0.0,0.0,0.0,0.0,0.0,0.0,0.0,0.0,0.0,0.0,0.0,0.00011720795009750873,-1.0208841558778659e-05,-9.354217763757333e-05,2.5525261662551202e-05,0.0,0.0,0.0,0.0,-0.00021216619643382728,0.00029890809673815966,0.00048674485879018903,-1.045878616423579e-05,-0.0003351425693836063,1.5714645996922627e-05,9.46874642977491e-05,-2.5166984414681792e-05,-0.16435964405536652,0.15190842747688293,9.308762550354004,-0.31216347217559814,0.11051789671182632,0.022614073008298874,0.0,0.0,0.0,0.08370358496904373,-0.1565900295972824,9.26494026184082,0.27616357803344727,0.03892722353339195,0.01838531345129013,0.0,0.0,0.0,-0.7689656615257263,-8.459728240966797,8.992648124694824,1.1109697818756104,0.2802835702896118,0.2887475788593292,0.0,0.0,0.0,-3.0017688274383545,-7.994932651519775,7.190886497497559,0.7711825370788574,0.2099679410457611,0.284278005361557,0.0,0.0,0.0,0.0,0.0,0.0,0.0,0.0,0.0,0.0,0.0,0.0,0.0,0.0,0.0,0.0,0.0,0.0,0.0,0.0,0.0,0.0,0.0,0.0,0.0,0.0,0.0,0.0,0.0,0.0,0.0,0.0,0.0,0.0,0.0,0.0,0.0,0.0,0.0,-0.17885830998420715,0.048224274069070816,9.459117889404297,-0.19081801176071167,-0.00545303663238883,-0.0341411717236042,0.0,0.0,0.0,0.2059279978275299,-0.04941130056977272,9.475996971130371,0.06853142380714417,0.2803685963153839,-0.005373009946197271,0.0,0.0,0.0,0.053419243544340134,-0.1488005816936493,9.488468170166016,-0.1796703338623047,0.1060490533709526,0.051456332206726074,0.0,0.0,0.0,-1.889018177986145,-2.880791187286377,9.474710464477539,-1.5351810455322266,-0.214400976896286,-0.7178210020065308,0.0,0.0,0.0,-0.22856935858726501,-0.011264189146459103,9.516345024108887,0.19957341253757477,-0.08372846990823746,0.07140687853097916,0.0,0.0,0.0,-1.8500099182128906,-1.173287272453308,9.731416702270508,-1.3949319124221802,0.4396113455295563,0.3231319189071655,0.0,0.0,0.0,0.03362562507390976,-0.21881943941116333,9.106689453125,0.015244519338011742,-0.06736191362142563,0.048746850341558456,0.0,0.0,0.0,-0.027436593547463417,0.13730977475643158,9.481019020080566,0.048235513269901276,0.05486246570944786,-0.0007188654271885753,0.0,0.0,0.0
0.005,0.0,0.0,0.0,0.0,0.0,0.0,0.0,0.0,0.0,0.0,0.0,0.0,6.842655181884766,2.889400005340576,-187.4859619140625,10937.4384765625,20781.859375,-1054.0477294921875,0.0,0.0,0.0,0.0,0.0,0.0,0.0048828125,0.00518798828125,0.0067138671875,0.00213623046875,0.00335693359375,0.00457763671875,0.0,0.0,0.0,0.0,0.0,0.0,0.0,0.0,0.0,0.0,0.0,0.0,0.0,0.0,0.0,0.0,0.0,0.0,0.0,0.0,0.0,0.0,0.0,0.0,0.0,0.0,0.0,0.0,0.0,0.0,0.0,0.0,0.0,0.0,0.0,0.0,0.0,0.0,0.0,0.0,0.0,0.0,0.0,0.0,0.0,0.0,0.0,0.0,0.0,0.0,0.0,0.0,0.0,0.0,0.0,0.0,0.0,0.0,0.0,0.0,0.0,0.0,0.0,0.0,6.129362736828625e-05,-7.430327059410047e-06,-2.3434236936736852e-05,2.355253127461765e-05,0.0,0.0,0.0,0.0,-0.00030336776399053633,0.0003579382610041648,0.0005711368285119534,-8.776682989264373e-06,-0.0004014465375803411,1.3200095054344274e-05,0.0002663463819772005,-0.00017907291476149112,-0.16405409574508667,0.15223854780197144,9.307869911193848,-0.312095582485199,0.11080591380596161,0.02233697660267353,0.0,0.0,0.0,0.08391084522008896,-0.1578122228384018,9.265344619750977,0.2763157784938812,0.038984209299087524,0.018311943858861923,0.0,0.0,0.0,-0.7710692286491394,-8.465975761413574,8.991277694702148,1.1053509712219238,0.2756873667240143,0.29315048456192017,0.0,0.0,0.0,-2.9665656089782715,-8.008442878723145,7.198774814605713,0.7745786905288696,0.20530599355697632,0.2810673117637634,0.0,0.0,0.0,0.0,0.0,0.0,0.0,0.0,0.0,0.0,0.0,0.0,0.0,0.0,0.0,0.0,0.0,0.0,0.0,0.0,0.0,0.0,0.0,0.0,0.0,0.0,0.0,0.0,0.0,0.0,0.0,0.0,0.0,0.0,0.0,0.0,0.0,0.0,0.0,-0.1762910634279251,0.04735677316784859,9.458861351013184,-0.19094836711883545,-0.005667684134095907,-0.034045957028865814,0.0,0.0,0.0,0.2045583724975586,-0.050475381314754486,9.474164009094238,0.0682707130908966,0.2805153429508209,-0.0053784712217748165,0.0,0.0,0.0,0.05393205210566521,-0.14974179863929749,9.487808227539062,-0.17945022881031036,0.10591323673725128,0.0515921488404274,0.0,0.0,0.0,-1.9024548530578613,-2.888798475265503,9.468659400939941,-1.5366538763046265,-0.2114524096250534,-0.7076449394226074,0.0,0.0,0.0,-0.22933857142925262,-0.008696937933564186,9.516064643859863,0.1996249407529831,-0.08379637449979782,0.07141780108213425,0.0,0.0,0.0,-1.8153375387191772,-1.1949653625488281,9.711409568786621,-1.4002166986465454,0.43243512511253357,0.32767370343208313,0.0,0.0,0.0,0.032733552157878876,-0.2182329148054123,9.10706901550293,0.01517661102116108,-0.06779666990041733,0.048725005239248276,0.0,0.0,0.0,-0.026397084817290306,0.13761532306671143,9.47921085357666,0.04816760495305061,0.054715726524591446,-0.0007867738022468984,0.0,0.0,0.0
0.005,0.0,0.0,0.0,0.0,0.0,0.0,0.0,0.0,0.0,0.0,0.0,0.0,6.842655181884766,2.736812114715576,-188.4014892578125,10571.2275390625,20598.75390625,-870.942138671875,0.0,0.0,0.0,0.0,0.0,0.0,0.0054931640625,0.0042724609375,0.00701904296875,0.00213623046875,0.00274658203125,0.0042724609375,0.0,0.0,0.0,0.0,0.0,0.0,0.0,0.0,0.0,0.0,0.0,0.0,0.0,0.0,0.0,0.0,0.0,0.0,0.0,0.0,0.0,0.0,0.0,0.0,0.0,0.0,0.0,0.0,0.0,0.0,0.0,0.0,0.0,0.0,0.0,0.0,0.0,0.0,0.0,0.0,0.0,0.0,0.0,0.0,0.0,0.0,0.0,0.0,0.0,0.0,0.0,0.0,0.0,0.0,0.0,0.0,0.0,0.0,0.0,0.0,0.0,0.0,0.0,0.0,1.055550092132762e-05,-4.866735253017396e-06,2.9120606996002607e-05,2.2127673219074495e-05,0.0,0.0,0.0,0.0,-0.0003727024304680526,0.00039556826232001185,0.0006253118626773357,-5.748866897192784e-06,-0.00043828485650010407,1.4476664546236861e-05,0.0004080282524228096,-0.0003051961539313197,-0.16374854743480682,0.15256866812705994,9.306978225708008,-0.3120276629924774,0.1110939309000969,0.022059882059693336,0.0,0.0,0.0,0.08411809802055359,-0.15903441607952118,9.265748023986816,0.2764679789543152,0.039041195064783096,0.018238574266433716,0.0,0.0,0.0,-0.7731727957725525,-8.472224235534668,8.989908218383789,1.0997321605682373,0.27109119296073914,0.2975533604621887,0.0,0.0,0.0,-2.9313623905181885,-8.021953582763672,7.206663608551025,0.7779748439788818,0.20064404606819153,0.27785661816596985,0.0,0.0,0.0,0.0,0.0,0.0,0.0,0.0,0.0,0.0,0.0,0.0,0.0,0.0,0.0,0.0,0.0,0.0,0.0,0.0,0.0,0.0,0.0,0.0,0.0,0.0,0.0,0.0,0.0,0.0,0.0,0.0,0.0,0.0,0.0,0.0,0.0,0.0,0.0,-0.17372381687164307,0.04648927226662636,9.458605766296387,-0.19107872247695923,-0.0058823321014642715,-0.033950742334127426,0.0,0.0,0.0,0.20318874716758728,-0.05153946205973625,9.472331047058105,0.06801000237464905,0.28066205978393555,-0.005383932497352362,0.0,0.0,0.0,0.05444485694169998,-0.15068301558494568,9.48714828491211,-0.17923012375831604,0.10577742010354996,0.05172796547412872,0.0,0.0,0.0,-1.9158915281295776,-2.896805763244629,9.462608337402344,-1.5381267070770264,-0.208503857254982,-0.6974688768386841,0.0,0.0,0.0,-0.23010778427124023,-0.0061296867206692696,9.515783309936523,0.19967645406723022,-0.08386428654193878,0.07142872363328934,0.0,0.0,0.0,-1.7806651592254639,-1.2166433334350586,9.691402435302734,-1.405501365661621,0.42525893449783325,0.33221548795700073,0.0,0.0,0.0,0.03184147924184799,-0.21764639019966125,9.10744857788086,0.015108702704310417,-0.06823142617940903,0.048703160136938095,0.0,0.0,0.0,-0.025357576087117195,0.13792087137699127,9.477401733398438,0.04809969663619995,0.05456898733973503,-0.0008546821773052216,0.0,0.0,0.0
0.006,0.0,0.0,0.0,0.0,0.0,0.0,0.0,0.0,0.0,0.0,0.0,0.0,6.842655181884766,2.584224224090576,-189.3170166015625,10205.0166015625,20415.6484375,-687.836669921875,0.0,0.0,0.0,0.0,0.0,0.0,0.0054931640625,0.0042724609375,0.00701904296875,0.00213623046875,0.00274658203125,0.0042724609375,0.0,0.0,0.0,0.0,0.0,0.0,0.0,0.0,0.0,0.0,0.0,0.0,0.0,0.0,0.0,0.0,0.0,0.0,0.0,0.0,0.0,0.0,0.0,0.0,0.0,0.0,0.0,0.0,0.0,0.0,0.0,0.0,0.0,0.0,0.0,0.0,0.0,0.0,0.0,0.0,0.0,0.0,0.0,0.0,0.0,0.0,0.0,0.0,0.0,0.0,0.0,0.0,0.0,0.0,0.0,0.0,0.0,0.0,0.0,0.0,0.0,0.0,0.0,0.0,-3.3148666261695325e-05,-2.3999336917768233e-06,5.215756391407922e-05,2.05401247512782e-05,0.0,0.0,0.0,0.0,-0.00041587374289520085,0.0004132626054342836,0.0006478205323219299,-2.486064659024123e-06,-0.00044891113066114485,1.6150836017914116e-05,0.0005156552069820464,-0.00039982894668355584,-0.16344299912452698,0.15289878845214844,9.306085586547852,-0.31195977330207825,0.11138194799423218,0.021782787516713142,0.0,0.0,0.0,0.08432535827159882,-0.16025660932064056,9.266152381896973,0.27662017941474915,0.03909818083047867,0.01816520467400551,0.0,0.0,0.0,-0.7752764225006104,-8.478471755981445,8.98853874206543,1.0941132307052612,0.266495019197464,0.30195626616477966,0.0,0.0,0.0,-2.8961589336395264,-8.035463333129883,7.214552402496338,0.7813709378242493,0.19598211348056793,0.2746458947658539,0.0,0.0,0.0,0.0,0.0,0.0,0.0,0.0,0.0,0.0,0.0,0.0,0.0,0.0,0.0,0.0,0.0,0.0,0.0,0.0,0.0,0.0,0.0,0.0,0.0,0.0,0.0,0.0,0.0,0.0,0.0,0.0,0.0,0.0,0.0,0.0,0.0,0.0,0.0,-0.17115655541419983,0.04562177136540413,9.458349227905273,-0.191209077835083,-0.006096979603171349,-0.03385552763938904,0.0,0.0,0.0,0.20181910693645477,-0.05260354280471802,9.470497131347656,0.06774929165840149,0.28080880641937256,-0.005389393772929907,0.0,0.0,0.0,0.054957665503025055,-0.15162423253059387,9.48648738861084,-0.17901000380516052,0.10564160346984863,0.05186378210783005,0.0,0.0,0.0,-1.929328203201294,-2.904813051223755,9.456557273864746,-1.5395995378494263,-0.2055552899837494,-0.6872928142547607,0.0,0.0,0.0,-0.23087699711322784,-0.0035624352749437094,9.5155029296875,0.19972798228263855,-0.08393219113349915,0.07143964618444443,0.0,0.0,0.0,-1.7459927797317505,-1.238321304321289,9.671395301818848,-1.4107861518859863,0.41808271408081055,0.3367573022842407,0.0,0.0,0.0,0.03094940446317196,-0.21705986559391022,9.107827186584473,0.015040794387459755,-0.06866618245840073,0.048681315034627914,0.0,0.0,0.0,-0.024318069219589233,0.13822641968727112,9.475593566894531,0.04803178831934929,0.054422248154878616,-0.0009225905523635447,0.0,0.0,0.0
0.006,0.0,0.0,0.0,0.0,0.0,0.0,0.0,0.0,0.0,0.0,0.0,0.0,6.537479400634766,2.279048442840576,-188.0963134765625,10205.0166015625,20476.68359375,-687.836669921875,0.0,0.0,0.0,0.0,0.0,0.0,0.0048828125,0.00457763671875,0.00701904296875,0.00274658203125,0.0030517578125,0.00396728515625,0.0,0.0,0.0,0.0,0.0,0.0,0.0,0.0,0.0,0.0,0.0,0.0,0.0,0.0,0.0,0.0,0.0,0.0,0.0,0.0,0.0,0.0,0.0,0.0,0.0,0.0,0.0,0.0,0.0,0.0,0.0,0.0,0.0,0.0,0.0,0.0,0.0,0.0,0.0,0.0,0.0,0.0,0.0,0.0,0.0,0.0,0.0,0.0,0.0,0.0,0.0,0.0,0.0,0.0,0.0,0.0,0.0,0.0,0.0,0.0,0.0,0.0,0.0,0.0,-9.114974818658084e-05,1.2506552593549713e-06,8.380792132811621e-05,1.4526292943628505e-05,0.0,0.0,0.0,0.0,-0.0004588039009831846,0.00042384403059259057,0.0006598304025828838,-1.5432997315656394e-06,-0.00045587800559587777,1.0529844075790606e-05,0.0006498803850263357,-0.0005166450282558799,-0.16313745081424713,0.15322890877723694,9.305193901062012,-0.3118918538093567,0.11166996508836746,0.02150569297373295,0.0,0.0,0.0,0.08453261852264404,-0.16147880256175995,9.266555786132812,0.2767723798751831,0.03915516659617424,0.0180918350815773,0.0,0.0,0.0,-0.7773799896240234,-8.484719276428223,8.98716926574707,1.0884944200515747,0.26189884543418884,0.3063591420650482,0.0,0.0,0.0,-2.8609557151794434,-8.04897403717041,7.22244119644165,0.7847670912742615,0.19132016599178314,0.2714352011680603,0.0,0.0,0.0,0.0,0.0,0.0,0.0,0.0,0.0,0.0,0.0,0.0,0.0,0.0,0.0,0.0,0.0,0.0,0.0,0.0,0.0,0.0,0.0,0.0,0.0,0.0,0.0,0.0,0.0,0.0,0.0,0.0,0.0,0.0,0.0,0.0,0.0,0.0,0.0,-0.16858930885791779,0.0447542704641819,9.45809268951416,-0.1913394331932068,-0.006311627104878426,-0.03376031294465065,0.0,0.0,0.0,0.20044948160648346,-0.05366762354969978,9.468664169311523,0.06748858094215393,0.28095555305480957,-0.005394855048507452,0.0,0.0,0.0,0.05547047406435013,-0.15256544947624207,9.485827445983887,-0.1787898987531662,0.10550578683614731,0.05199959874153137,0.0,0.0,0.0,-1.9427648782730103,-2.912820339202881,9.450506210327148,-1.5410723686218262,-0.20260672271251678,-0.6771167516708374,0.0,0.0,0.0,-0.23164620995521545,-0.000995183945633471,9.51522159576416,0.19977951049804688,-0.0840001031756401,0.07145056873559952,0.0,0.0,0.0,-1.711320400238037,-1.2599992752075195,9.651388168334961,-1.4160709381103516,0.41090649366378784,0.3412990868091583,0.0,0.0,0.0,0.030057331547141075,-0.21647334098815918,9.108206748962402,0.014972886070609093,-0.06910093873739243,0.048659469932317734,0.0,0.0,0.0,-0.023278560489416122,0.13853196799755096,9.473784446716309,0.04796388000249863,0.0542755089700222,-0.0009904989274218678,0.0,0.0,0.0
0.007,0.0,0.0,0.0,0.0,0.0,0.0,0.0,0.0,0.0,0.0,0.0,0.0,6.232303619384766,1.9738727807998657,-186.8756103515625,10205.0166015625,20537.71875,-687.836669921875,0.0,0.0,0.0,0.0,0.0,0.0,0.0048828125,0.00457763671875,0.00701904296875,0.00274658203125,0.0030517578125,0.00396728515625,0.0,0.0,0.0,0.0,0.0,0.0,0.0,0.0,0.0,0.0,0.0,0.0,0.0,0.0,0.0,0.0,0.0,0.0,0.0,0.0,0.0,0.0,0.0,0.0,0.0,0.0,0.0,0.0,0.0,0.0,0.0,0.0,0.0,0.0,0.0,0.0,0.0,0.0,0.0,0.0,0.0,0.0,0.0,0.0,0.0,0.0,0.0,0.0,0.0,0.0,0.0,0.0,0.0,0.0,0.0,0.0,0.0,0.0,0.0,0.0,0.0,0.0,0.0,0.0,-0.00015721359523013234,5.736973434977699e-06,0.00011322626960463822,4.627820999303367e-06,0.0,0.0,0.0,0.0,-0.0004971165326423943,0.0004239474073983729,0.0006597938481718302,-2.682357717276318e-06,-0.00045935544767417014,-1.3265498637338169e-06,0.0007980673108249903,-0.0006460608565248549,-0.16351671516895294,0.15315519273281097,9.306489944458008,-0.3119761347770691,0.11159659177064896,0.02173672616481781,0.0,0.0,0.0,0.08280827850103378,-0.16006001830101013,9.267668724060059,0.2768348157405853,0.038929592818021774,0.018108218908309937,0.0,0.0,0.0,-0.778883159160614,-8.484487533569336,8.98687744140625,1.0826475620269775,0.25046756863594055,0.30828553438186646,0.0,0.0,0.0,-2.854675769805908,-8.04650592803955,7.194904327392578,0.7821839451789856,0.18686096370220184,0.2591928243637085,0.0,0.0,0.0,0.0,0.0,0.0,0.0,0.0,0.0,0.0,0.0,0.0,0.0,0.0,0.0,0.0,0.0,0.0,0.0,0.0,0.0,0.0,0.0,0.0,0.0,0.0,0.0,0.0,0.0,0.0,0.0,0.0,0.0,0.0,0.0,0.0,0.0,0.0,0.0,-0.1696288287639618,0.0464048907160759,9.459009170532227,-0.1911247819662094,-0.006243717856705189,-0.03349413722753525,0.0,0.0,0.0,0.19986295700073242,-0.054731711745262146,9.470718383789062,0.06788511574268341,0.28095555305480957,-0.005468225106596947,0.0,0.0,0.0,0.053514301776885986,-0.1518314778804779,9.48580265045166,-0.17879536747932434,0.10564160346984863,0.05185285955667496,0.0,0.0,0.0,-1.940019130706787,-2.907381296157837,9.454607963562012,-1.5411731004714966,-0.193858802318573,-0.6625680327415466,0.0,0.0,0.0,-0.22874881327152252,-0.001985556213185191,9.515931129455566,0.199491485953331,-0.0839267298579216,0.07158638536930084,0.0,0.0,0.0,-1.6833271980285645,-1.2969261407852173,9.639809608459473,-1.4223415851593018,0.4130252003669739,0.34421515464782715,0.0,0.0,0.0,0.031181249767541885,-0.21741457283496857,9.108891487121582,0.015057179145514965,-0.06901664286851883,0.04837144911289215,0.0,0.0,0.0,-0.022667456418275833,0.1381772756576538,9.476070404052734,0.04803178831934929,0.0542755089700222,-0.0009225898538716137,0.0,0.0,0.0
0.007,0.0,0.0,0.0,0.0,0.0,0.0,0.0,0.0,0.0,0.0,0.0,0.0,6.537479400634766,1.8212848901748657,-187.1807861328125,10479.6748046875,20476.68359375,-687.836669921875,0.0,0.0,0.0,0.0,0.0,0.0,0.00518798828125,0.0048828125,0.00701904296875,0.00244140625,0.0030517578125,0.00396728515625,0.0,0.0,0.0,0.0,0.0,0.0,0.0,0.0,0.0,0.0,0.0,0.0,0.0,0.0,0.0,0.0,0.0,0.0,0.0,0.0,0.0,0.0,0.0,0.0,0.0,0.0,0.0,0.0,0.0,0.0,0.0,0.0,0.0,0.0,0.0,0.0,0.0,0.0,0.0,0.0,0.0,0.0,0.0,0.0,0.0,0.0,0.0,0.0,0.0,0.0,0.0,0.0,0.0,0.0,0.0,0.0,0.0,0.0,0.0,0.0,0.0,0.0,0.0,0.0,-0.00019933156727347523,8.935973710322287e-06,0.00011126083700219169,-4.422989604790928e-06,0.0,0.0,0.0,0.0,-0.0005001366953365505,0.00039949273923411965,0.0006302155670709908,-4.744406851386884e-06,-0.00044349991367198527,-1.1479672139103059e-05,0.0008736366871744394,-0.0007150534656830132,-0.16389599442481995,0.153081476688385,9.307785987854004,-0.3120604455471039,0.11152322590351105,0.021967759355902672,0.0,0.0,0.0,0.08108394593000412,-0.15864123404026031,9.268782615661621,0.27689728140830994,0.03870402276515961,0.018124602735042572,0.0,0.0,0.0,-0.7803863883018494,-8.48425579071045,8.98658561706543,1.07680082321167,0.23903627693653107,0.3102119266986847,0.0,0.0,0.0,-2.848396062850952,-8.044037818908691,7.167366981506348,0.7796007394790649,0.18240176141262054,0.2469504177570343,0.0,0.0,0.0,0.0,0.0,0.0,0.0,0.0,0.0,0.0,0.0,0.0,0.0,0.0,0.0,0.0,0.0,0.0,0.0,0.0,0.0,0.0,0.0,0.0,0.0,0.0,0.0,0.0,0.0,0.0,0.0,0.0,0.0,0.0,0.0,0.0,0.0,0.0,0.0,-0.1706683486700058,0.048055510967969894,9.459925651550293,-0.19091013073921204,-0.006175809074193239,-0.033227961510419846,0.0,0.0,0.0,0.1992764174938202,-0.05579580366611481,9.472773551940918,0.0682816430926323,0.28095555305480957,-0.005541595630347729,0.0,0.0,0.0,0.051558129489421844,-0.15109752118587494,9.485777854919434,-0.1788008213043213,0.10577742755413055,0.051706116646528244,0.0,0.0,0.0,-1.9372735023498535,-2.901942253112793,9.458708763122559,-1.5412737131118774,-0.1851108819246292,-0.6480193734169006,0.0,0.0,0.0,-0.2258514016866684,-0.002975928597152233,9.516640663146973,0.1992034763097763,-0.08385336399078369,0.07172220945358276,0.0,0.0,0.0,-1.6553338766098022,-1.333853006362915,9.628230094909668,-1.428612232208252,0.4151439368724823,0.3471311926841736,0.0,0.0,0.0,0.032305166125297546,-0.21835578978061676,9.109576225280762,0.015141471289098263,-0.06893235445022583,0.048083432018756866,0.0,0.0,0.0,-0.022056354209780693,0.13782256841659546,9.478357315063477,0.04809969663619995,0.0542755089700222,-0.0008546807803213596,0.0,0.0,0.0
0.008,0.0,0.0,0.0,0.0,0.0,0.0,0.0,0.0,0.0,0.0,0.0,0.0,6.842655181884766,1.6686969995498657,-187.4859619140625,10754.3330078125,20415.6484375,-687.836669921875,0.0,0.0,0.0,0.0,0.0,0.0,0.00518798828125,0.0048828125,0.00701904296875,0.00244140625,0.0030517578125,0.00396728515625,0.0,0.0,0.0,0.0,0.0,0.0,0.0,0.0,0.0,0.0,0.0,0.0,0.0,0.0,0.0,0.0,0.0,0.0,0.0,0.0,0.0,0.0,0.0,0.0,0.0,0.0,0.0,0.0,0.0,0.0,0.0,0.0,0.0,0.0,0.0,0.0,0.0,0.0,0.0,0.0,0.0,0.0,0.0,0.0,0.0,0.0,0.0,0.0,0.0,0.0,0.0,0.0,0.0,0.0,0.0,0.0,0.0,0.0,0.0,0.0,0.0,0.0,0.0,0.0,-0.00023045222042128444,1.1337539945088793e-05,0.00010405872308183461,-1.2694343240582384e-05,0.0,0.0,0.0,0.0,-0.00048027760931290686,0.0003569586551748216,0.0005777720944024622,-6.709200988552766e-06,-0.00040980917401611805,-1.659293229749892e-05,0.0008994194795377553,-0.000744617311283946,-0.16427525877952576,0.15300776064395905,9.30908203125,-0.3121447265148163,0.11144985258579254,0.022198792546987534,0.0,0.0,0.0,0.07935960590839386,-0.1572224497795105,9.269895553588867,0.27695971727371216,0.03847844898700714,0.018140986561775208,0.0,0.0,0.0,-0.7818895578384399,-8.484024047851562,8.986294746398926,1.0709539651870728,0.22760500013828278,0.31213831901550293,0.0,0.0,0.0,-2.842116117477417,-8.041570663452148,7.139830112457275,0.7770175933837891,0.17794255912303925,0.2347080260515213,0.0,0.0,0.0,0.0,0.0,0.0,0.0,0.0,0.0,0.0,0.0,0.0,0.0,0.0,0.0,0.0,0.0,0.0,0.0,0.0,0.0,0.0,0.0,0.0,0.0,0.0,0.0,0.0,0.0,0.0,0.0,0.0,0.0,0.0,0.0,0.0,0.0,0.0,0.0,-0.1717078536748886,0.04970613121986389,9.46084213256836,-0.19069549441337585,-0.006107899826020002,-0.03296178951859474,0.0,0.0,0.0,0.19868989288806915,-0.05685989186167717,9.474827766418457,0.06867817789316177,0.28095555305480957,-0.0056149656884372234,0.0,0.0,0.0,0.0496019572019577,-0.15036354959011078,9.485754013061523,-0.17880629003047943,0.10591324418783188,0.05155937746167183,0.0,0.0,0.0,-1.9345277547836304,-2.896503210067749,9.462810516357422,-1.5413744449615479,-0.17636296153068542,-0.6334706544876099,0.0,0.0,0.0,-0.22295400500297546,-0.0039663007482886314,9.517350196838379,0.19891545176506042,-0.08377999067306519,0.07185802608728409,0.0,0.0,0.0,-1.6273406744003296,-1.3707799911499023,9.61665153503418,-1.4348828792572021,0.41726264357566833,0.3500472605228424,0.0,0.0,0.0,0.03342908248305321,-0.21929702162742615,9.110260963439941,0.015225764364004135,-0.06884805858135223,0.047795411199331284,0.0,0.0,0.0,-0.021445250138640404,0.1374678760766983,9.480643272399902,0.04816760495305061,0.0542755089700222,-0.0007867717067711055,0.0,0.0,0.0
0.009,0.0,0.0,0.0,0.0,0.0,0.0,0.0,0.0,0.0,0.0,0.0,0.0,6.995243072509766,1.8212848901748657,-187.1807861328125,10571.2275390625,20415.6484375,-687.836669921875,0.0,0.0,0.0,0.0,0.0,0.0,0.0048828125,0.0048828125,0.00732421875,0.00244140625,0.00335693359375,0.0042724609375,0.0,0.0,0.0,0.0,0.0,0.0,0.0,0.0,0.0,0.0,0.0,0.0,0.0,0.0,0.0,0.0,0.0,0.0,0.0,0.0,0.0,0.0,0.0,0.0,0.0,0.0,0.0,0.0,0.0,0.0,0.0,0.0,0.0,0.0,0.0,0.0,0.0,0.0,0.0,0.0,0.0,0.0,0.0,0.0,0.0,0.0,0.0,0.0,0.0,0.0,0.0,0.0,0.0,0.0,0.0,0.0,0.0,0.0,0.0,0.0,0.0,0.0,0.0,0.0,-0.0002669473469723016,1.4120199011813384e-05,0.00011003061808878556,-2.1653588191838935e-05,0.0,0.0,0.0,0.0,-0.0004546699929051101,0.0003062989271711558,0.0005099321715533733,-7.215397090476472e-06,-0.0003646739642135799,-1.7256725186598487e-05,0.0009200898930430412,-0.0007715099491178989,-0.16465452313423157,0.15293404459953308,9.310378074645996,-0.3122290074825287,0.11137647926807404,0.022429825738072395,0.0,0.0,0.0,0.0776352658867836,-0.15580366551876068,9.271008491516113,0.27702218294143677,0.038252878934144974,0.018157370388507843,0.0,0.0,0.0,-0.7833927273750305,-8.483792304992676,8.986002922058105,1.0651071071624756,0.21617372334003448,0.31406471133232117,0.0,0.0,0.0,-2.835836410522461,-8.039102554321289,7.112292766571045,0.7744344472885132,0.17348335683345795,0.2224656343460083,0.0,0.0,0.0,0.0,0.0,0.0,0.0,0.0,0.0,0.0,0.0,0.0,0.0,0.0,0.0,0.0,0.0,0.0,0.0,0.0,0.0,0.0,0.0,0.0,0.0,0.0,0.0,0.0,0.0,0.0,0.0,0.0,0.0,0.0,0.0,0.0,0.0,0.0,0.0,-0.17274737358093262,0.05135675147175789,9.461758613586426,-0.19048084318637848,-0.0060399905778467655,-0.03269561380147934,0.0,0.0,0.0,0.19810335338115692,-0.05792398005723953,9.476881980895996,0.06907471269369125,0.28095555305480957,-0.0056883362121880054,0.0,0.0,0.0,0.04764578491449356,-0.1496295928955078,9.485729217529297,-0.17881174385547638,0.1060490608215332,0.051412638276815414,0.0,0.0,0.0,-1.9317821264266968,-2.891064167022705,9.466912269592285,-1.5414750576019287,-0.16761504113674164,-0.6189219951629639,0.0,0.0,0.0,-0.22005660831928253,-0.004956673365086317,9.518058776855469,0.19862742722034454,-0.08370661735534668,0.07199384272098541,0.0,0.0,0.0,-1.599347472190857,-1.4077068567276,9.605072021484375,-1.441153645515442,0.41938135027885437,0.35296329855918884,0.0,0.0,0.0,0.03455300256609917,-0.22023825347423553,9.110945701599121,0.015310056507587433,-0.06876377016305923,0.0475073903799057,0.0,0.0,0.0,-0.020834146067500114,0.13711318373680115,9.482929229736328,0.048235513269901276,0.0542755089700222,-0.0007188626332208514,0.0,0.0,0.0
0.009,0.0,0.0,0.0,0.0,0.0,0.0,0.0,0.0,0.0,0.0,0.0,0.0,7.147830963134766,1.9738727807998657,-186.8756103515625,10388.1220703125,20415.6484375,-687.836669921875,0.0,0.0,0.0,0.0,0.0,0.0,0.0048828125,0.0048828125,0.00732421875,0.00244140625,0.00335693359375,0.0042724609375,0.0,0.0,0.0,0.0,0.0,0.0,0.0,0.0,0.0,0.0,0.0,0.0,0.0,0.0,0.0,0.0,0.0,0.0,0.0,0.0,0.0,0.0,0.0,0.0,0.0,0.0,0.0,0.0,0.0,0.0,0.0,0.0,0.0,0.0,0.0,0.0,0.0,0.0,0.0,0.0,0.0,0.0,0.0,0.0,0.0,0.0,0.0,0.0,0.0,0.0,0.0,0.0,0.0,0.0,0.0,0.0,0.0,0.0,0.0,0.0,0.0,0.0,0.0,0.0,-0.00029006091062910855,1.636149681871757e-05,0.00011189752694917843,-2.7717602279153652e-05,0.0,0.0,0.0,0.0,-0.000412759865866974,0.00024783104890957475,0.00042454549111425877,-5.733880243496969e-06,-0.0003087493823841214,-1.4994005141488742e-05,0.0009025164763443172,-0.0007650787010788918,-0.16503378748893738,0.15286032855510712,9.311674118041992,-0.3123133182525635,0.11130311340093613,0.022660858929157257,0.0,0.0,0.0,0.07591093331575394,-0.15438486635684967,9.27212142944336,0.277084618806839,0.03802730515599251,0.01817375421524048,0.0,0.0,0.0,-0.7848958969116211,-8.483559608459473,8.985711097717285,1.0592602491378784,0.2047424465417862,0.315991073846817,0.0,0.0,0.0,-2.829556465148926,-8.03663444519043,7.084755897521973,0.7718513011932373,0.16902415454387665,0.2102232426404953,0.0,0.0,0.0,0.0,0.0,0.0,0.0,0.0,0.0,0.0,0.0,0.0,0.0,0.0,0.0,0.0,0.0,0.0,0.0,0.0,0.0,0.0,0.0,0.0,0.0,0.0,0.0,0.0,0.0,0.0,0.0,0.0,0.0,0.0,0.0,0.0,0.0,0.0,0.0,-0.17378689348697662,0.053007375448942184,9.462676048278809,-0.1902661919593811,-0.005972081795334816,-0.03242943808436394,0.0,0.0,0.0,0.19751682877540588,-0.058988071978092194,9.478936195373535,0.06947124004364014,0.28095555305480957,-0.0057617062702775,0.0,0.0,0.0,0.04568961262702942,-0.14889562129974365,9.48570442199707,-0.17881721258163452,0.10618487745523453,0.051265899091959,0.0,0.0,0.0,-1.9290363788604736,-2.885625123977661,9.471013069152832,-1.5415757894515991,-0.15886710584163666,-0.6043732762336731,0.0,0.0,0.0,-0.2171592116355896,-0.005947045516222715,9.518768310546875,0.19833940267562866,-0.08363325148820877,0.07212965935468674,0.0,0.0,0.0,-1.5713542699813843,-1.4446337223052979,9.593493461608887,-1.447424292564392,0.4215000569820404,0.35587936639785767,0.0,0.0,0.0,0.03567691892385483,-0.22117947041988373,9.1116304397583,0.015394349582493305,-0.06867947429418564,0.04721936956048012,0.0,0.0,0.0,-0.020223041996359825,0.136758491396904,9.48521614074707,0.048303425312042236,0.0542755089700222,-0.0006509535596705973,0.0,0.0,0.0
0.009,0.0,0.0,0.0,0.0,0.0,0.0,0.0,0.0,0.0,0.0,0.0,0.0,7.453006744384766,2.126460552215576,-186.5704345703125,10388.1220703125,20354.61328125,-733.613037109375,0.0,0.0,0.0,0.0,0.0,0.0,0.0048828125,0.00518798828125,0.0067138671875,0.0030517578125,0.00274658203125,0.00396728515625,0.0,0.0,0.0,0.0,0.0,0.0,0.0,0.0,0.0,0.0,0.0,0.0,0.0,0.0,0.0,0.0,0.0,0.0,0.0,0.0,0.0,0.0,0.0,0.0,0.0,0.0,0.0,0.0,0.0,0.0,0.0,0.0,0.0,0.0,0.0,0.0,0.0,0.0,0.0,0.0,0.0,0.0,0.0,0.0,0.0,0.0,0.0,0.0,0.0,0.0,0.0,0.0,0.0,0.0,0.0,0.0,0.0,0.0,0.0,0.0,0.0,0.0,0.0,0.0,-0.00029827700927853584,1.7745582226780243e-05,0.00010348220530431718,-2.65972048509866e-05,0.0,0.0,0.0,0.0,-0.0003560716286301613,0.00018351085600443184,0.000326120643876493,-3.0680885174660943e-06,-0.00024169478274416178,-1.4166231267154217e-05,0.0008440400706604123,-0.0007244484731927514,-0.16541306674480438,0.15278661251068115,9.312970161437988,-0.3123975992202759,0.11122974008321762,0.02289189212024212,0.0,0.0,0.0,0.07418659329414368,-0.15296608209609985,9.273235321044922,0.2771470546722412,0.03780173510313034,0.018190138041973114,0.0,0.0,0.0,-0.7863991260528564,-8.483327865600586,8.985419273376465,1.0534135103225708,0.1933111548423767,0.31791746616363525,0.0,0.0,0.0,-2.8232767581939697,-8.03416633605957,7.0572190284729,0.7692680954933167,0.16456495225429535,0.1979808509349823,0.0,0.0,0.0,0.0,0.0,0.0,0.0,0.0,0.0,0.0,0.0,0.0,0.0,0.0,0.0,0.0,0.0,0.0,0.0,0.0,0.0,0.0,0.0,0.0,0.0,0.0,0.0,0.0,0.0,0.0,0.0,0.0,0.0,0.0,0.0,0.0,0.0,0.0,0.0,-0.17482641339302063,0.05465799570083618,9.463592529296875,-0.19005154073238373,-0.005904172547161579,-0.032163262367248535,0.0,0.0,0.0,0.19693028926849365,-0.060052160173654556,9.48099136352539,0.06986777484416962,0.28095555305480957,-0.005835076794028282,0.0,0.0,0.0,0.04373344033956528,-0.14816166460514069,9.485679626464844,-0.17882266640663147,0.10632070153951645,0.051119156181812286,0.0,0.0,0.0,-1.92629075050354,-2.880186080932617,9.475114822387695,-1.54167640209198,-0.15011918544769287,-0.5898246169090271,0.0,0.0,0.0,-0.21426180005073547,-0.006937417667359114,9.519477844238281,0.19805139303207397,-0.08355987817049026,0.07226548343896866,0.0,0.0,0.0,-1.543360948562622,-1.4815605878829956,9.581914901733398,-1.4536949396133423,0.42361879348754883,0.3587954342365265,0.0,0.0,0.0,0.03680083528161049,-0.22212070226669312,9.11231517791748,0.015478642657399178,-0.06859518587589264,0.04693135246634483,0.0,0.0,0.0,-0.019611939787864685,0.13640378415584564,9.487502098083496,0.0483713336288929,0.0542755089700222,-0.0005830444861203432,0.0,0.0,0.0
0.010,0.0,0.0,0.0,0.0,0.0,0.0,0.0,0.0,0.0,0.0,0.0,0.0,7.758182525634766,2.279048442840576,-186.2652587890625,10388.1220703125,20293.578125,-779.389404296875,0.0,0.0,0.0,0.0,0.0,0.0,0.0048828125,0.00518798828125,0.0067138671875,0.0030517578125,0.00274658203125,0.00396728515625,0.0,0.0,0.0,0.0,0.0,0.0,0.0,0.0,0.0,0.0,0.0,0.0,0.0,0.0,0.0,0.0,0.0,0.0,0.0,0.0,0.0,0.0,0.0,0.0,0.0,0.0,0.0,0.0,0.0,0.0,0.0,0.0,0.0,0.0,0.0,0.0,0.0,0.0,0.0,0.0,0.0,0.0,0.0,0.0,0.0,0.0,0.0,0.0,0.0,0.0,0.0,0.0,0.0,0.0,0.0,0.0,0.0,0.0,0.0,0.0,0.0,0.0,0.0,0.0,-0.0003008206549566239,1.8707112758420408e-05,8.117014658637345e-05,-1.838519165175967e-05,0.0,0.0,0.0,0.0,-0.0002880692481994629,0.00011115378583781421,0.00021367621957324445,-1.577474904479459e-06,-0.0001580195821588859,-1.8772372641251422e-05,0.0007611084147356451,-0.000664953317027539,-0.1657923310995102,0.1527128964662552,9.314266204833984,-0.31248190999031067,0.11115637421607971,0.02312292531132698,0.0,0.0,0.0,0.07246225327253342,-0.15154729783535004,9.274348258972168,0.2772095203399658,0.037576161324977875,0.0182065200060606,0.0,0.0,0.0,-0.787902295589447,-8.4830961227417,8.985128402709961,1.0475666522979736,0.18187987804412842,0.3198438584804535,0.0,0.0,0.0,-2.8169968128204346,-8.031699180603027,7.02968168258667,0.7666849493980408,0.16010573506355286,0.1857384592294693,0.0,0.0,0.0,0.0,0.0,0.0,0.0,0.0,0.0,0.0,0.0,0.0,0.0,0.0,0.0,0.0,0.0,0.0,0.0,0.0,0.0,0.0,0.0,0.0,0.0,0.0,0.0,0.0,0.0,0.0,0.0,0.0,0.0,0.0,0.0,0.0,0.0,0.0,0.0,-0.17586593329906464,0.05630861595273018,9.464509010314941,-0.18983688950538635,-0.00583626376464963,-0.03189708665013313,0.0,0.0,0.0,0.19634376466274261,-0.06111624836921692,9.48304557800293,0.0702643021941185,0.28095555305480957,-0.005908446852117777,0.0,0.0,0.0,0.041777268052101135,-0.14742769300937653,9.485655784606934,-0.1788281351327896,0.10645651817321777,0.05097241699695587,0.0,0.0,0.0,-1.923545002937317,-2.8747470378875732,9.479216575622559,-1.5417771339416504,-0.14137126505374908,-0.5752758979797363,0.0,0.0,0.0,-0.21136440336704254,-0.0079277902841568,9.520187377929688,0.1977633684873581,-0.08348651230335236,0.07240130007266998,0.0,0.0,0.0,-1.5153677463531494,-1.5184874534606934,9.570335388183594,-1.4599655866622925,0.42573750019073486,0.3617114722728729,0.0,0.0,0.0,0.03792475536465645,-0.2230619341135025,9.113000869750977,0.015562934800982475,-0.06851089000701904,0.04664333164691925,0.0,0.0,0.0,-0.019000835716724396,0.1360490918159485,9.489788055419922,0.04843924194574356,0.0542755089700222,-0.0005151354125700891,0.0,0.0,0.0
0.011,0.0,0.0,0.0,0.0,0.0,0.0,0.0,0.0,0.0,0.0,0.0,0.0,7.300418853759766,1.9738726615905762,-186.5704345703125,10388.1220703125,20293.578125,-733.613037109375,0.0,0.0,0.0,0.0,0.0,0.0,0.0048828125,0.00579833984375,0.00732421875,0.00274658203125,0.0030517578125,0.0042724609375,0.0,0.0,0.0,0.0,0.0,0.0,0.0,0.0,0.0,0.0,0.0,0.0,0.0,0.0,0.0,0.0,0.0,0.0,0.0,0.0,0.0,0.0,0.0,0.0,0.0,0.0,0.0,0.0,0.0,0.0,0.0,0.0,0.0,0.0,0.0,0.0,0.0,0.0,0.0,0.0,0.0,0.0,0.0,0.0,0.0,0.0,0.0,0.0,0.0,0.0,0.0,0.0,0.0,0.0,0.0,0.0,0.0,0.0,0.0,0.0,0.0,0.0,0.0,0.0,-0.00029353058198466897,1.907985279103741e-05,4.4367421651259065e-05,-6.577618478331715e-06,0.0,0.0,0.0,0.0,-0.00020475685596466064,2.871215110644698e-05,8.704313222551718e-05,-2.444594429107383e-06,-6.001930159982294e-05,-2.698856951610651e-05,0.0006459029973484576,-0.0005788463749922812,-0.166171595454216,0.15263918042182922,9.31556224822998,-0.31256619095802307,0.1110830008983612,0.023353958502411842,0.0,0.0,0.0,0.07073792070150375,-0.15012851357460022,9.275461196899414,0.27727195620536804,0.03735059127211571,0.018222903832793236,0.0,0.0,0.0,-0.7894054651260376,-8.482864379882812,8.98483657836914,1.0417197942733765,0.17044860124588013,0.32177025079727173,0.0,0.0,0.0,-2.8107171058654785,-8.029231071472168,7.002144813537598,0.7641018033027649,0.15564653277397156,0.1734960675239563,0.0,0.0,0.0,0.0,0.0,0.0,0.0,0.0,0.0,0.0,0.0,0.0,0.0,0.0,0.0,0.0,0.0,0.0,0.0,0.0,0.0,0.0,0.0,0.0,0.0,0.0,0.0,0.0,0.0,0.0,0.0,0.0,0.0,0.0,0.0,0.0,0.0,0.0,0.0,-0.17690545320510864,0.057959236204624176,9.465425491333008,-0.18962223827838898,-0.005768354516476393,-0.03163091093301773,0.0,0.0,0.0,0.19575722515583038,-0.06218034029006958,9.485099792480469,0.07066083699464798,0.28095555305480957,-0.005981817375868559,0.0,0.0,0.0,0.03982109576463699,-0.14669373631477356,9.485630989074707,-0.17883358895778656,0.1065923348069191,0.05082567781209946,0.0,0.0,0.0,-1.9207993745803833,-2.8693079948425293,9.483317375183105,-1.5418777465820312,-0.1326233446598053,-0.5607272386550903,0.0,0.0,0.0,-0.2084670066833496,-0.008918162435293198,9.520896911621094,0.1974753439426422,-0.08341313898563385,0.07253711670637131,0.0,0.0,0.0,-1.4873745441436768,-1.5554143190383911,9.558756828308105,-1.4662362337112427,0.4278562068939209,0.36462754011154175,0.0,0.0,0.0,0.03904867172241211,-0.2240031510591507,9.113685607910156,0.015647226944565773,-0.06842660158872604,0.04635531082749367,0.0,0.0,0.0,-0.018389731645584106,0.13569439947605133,9.492074966430664,0.04850715026259422,0.0542755089700222,-0.000447226339019835,0.0,0.0,0.0
0.011,0.0,0.0,0.0,0.0,0.0,0.0,0.0,0.0,0.0,0.0,0.0,0.0,6.842655181884766,1.6686969995498657,-186.8756103515625,10388.1220703125,20293.578125,-687.836669921875,0.0,0.0,0.0,0.0,0.0,0.0,0.0048828125,0.00579833984375,0.00732421875,0.00274658203125,0.0030517578125,0.0042724609375,0.0,0.0,0.0,0.0,0.0,0.0,0.0,0.0,0.0,0.0,0.0,0.0,0.0,0.0,0.0,0.0,0.0,0.0,0.0,0.0,0.0,0.0,0.0,0.0,0.0,0.0,0.0,0.0,0.0,0.0,0.0,0.0,0.0,0.0,0.0,0.0,0.0,0.0,0.0,0.0,0.0,0.0,0.0,0.0,0.0,0.0,0.0,0.0,0.0,0.0,0.0,0.0,0.0,0.0,0.0,0.0,0.0,0.0,0.0,0.0,0.0,0.0,0.0,0.0,-0.00027501434669829905,1.8771086615743116e-05,1.538335345685482e-05,4.512572104431456e-06,0.0,0.0,0.0,0.0,-0.00011319894838379696,-5.687760130967945e-05,-4.036569589516148e-05,-4.033047389384592e-06,3.530733010848053e-05,-3.296210343251005e-05,0.0005029981257393956,-0.00046924143680371344,-0.166550874710083,0.15256546437740326,9.316858291625977,-0.3126504719257355,0.1110096275806427,0.023584991693496704,0.0,0.0,0.0,0.0690135806798935,-0.1487097293138504,9.27657413482666,0.27733442187309265,0.03712501749396324,0.01823928765952587,0.0,0.0,0.0,-0.7909086346626282,-8.482632637023926,8.98454475402832,1.0358729362487793,0.15901730954647064,0.32369664311408997,0.0,0.0,0.0,-2.8044371604919434,-8.026762962341309,6.974607467651367,0.7615185976028442,0.15118733048439026,0.1612536758184433,0.0,0.0,0.0,0.0,0.0,0.0,0.0,0.0,0.0,0.0,0.0,0.0,0.0,0.0,0.0,0.0,0.0,0.0,0.0,0.0,0.0,0.0,0.0,0.0,0.0,0.0,0.0,0.0,0.0,0.0,0.0,0.0,0.0,0.0,0.0,0.0,0.0,0.0,0.0,-0.17794495820999146,0.05960985645651817,9.466341972351074,-0.1894076019525528,-0.005700445268303156,-0.03136473894119263,0.0,0.0,0.0,0.19517070055007935,-0.06324443221092224,9.487154960632324,0.07105737179517746,0.28095555305480957,-0.006055187433958054,0.0,0.0,0.0,0.03786492347717285,-0.1459597647190094,9.48560619354248,-0.1788390576839447,0.10672815144062042,0.050678934901952744,0.0,0.0,0.0,-1.9180536270141602,-2.8638689517974854,9.487419128417969,-1.5419784784317017,-0.12387542426586151,-0.5461785197257996,0.0,0.0,0.0,-0.20556960999965668,-0.009908534586429596,9.5216064453125,0.19718731939792633,-0.08333976566791534,0.07267293334007263,0.0,0.0,0.0,-1.4593812227249146,-1.5923413038253784,9.5471773147583,-1.4725068807601929,0.4299749433994293,0.3675435781478882,0.0,0.0,0.0,0.04017258808016777,-0.22494438290596008,9.114370346069336,0.01573152095079422,-0.06834230571985245,0.046067290008068085,0.0,0.0,0.0,-0.017778629437088966,0.13533970713615417,9.49436092376709,0.048575058579444885,0.0542755089700222,-0.00037931729457341135,0.0,0.0,0.0
0.011,0.0,0.0,0.0,0.0,0.0,0.0,0.0,0.0,0.0,0.0,0.0,0.0,7.300418853759766,1.9738726615905762,-186.8756103515625,10388.1220703125,20293.578125,-687.836669921875,0.0,0.0,0.0,0.0,0.0,0.0,0.00518798828125,0.0054931640625,0.00701904296875,0.00274658203125,0.003662109375,0.0048828125,0.0,0.0,0.0,0.0,0.0,0.0,0.0,0.0,0.0,0.0,0.0,0.0,0.0,0.0,0.0,0.0,0.0,0.0,0.0,0.0,0.0,0.0,0.0,0.0,0.0,0.0,0.0,0.0,0.0,0.0,0.0,0.0,0.0,0.0,0.0,0.0,0.0,0.0,0.0,0.0,0.0,0.0,0.0,0.0,0.0,0.0,0.0,0.0,0.0,0.0,0.0,0.0,0.0,0.0,0.0,0.0,0.0,0.0,0.0,0.0,0.0,0.0,0.0,0.0,-0.0002481941774021834,1.7930047761183232e-05,6.759916232113028e-06,9.896722986013629e-06,0.0,0.0,0.0,0.0,-2.3291693651117384e-05,-0.00013994734035804868,-0.00015742177492938936,-7.432756319758482e-06,0.00011889888992300257,-3.461167580098845e-05,0.0003475031116977334,-0.00034687446895986795,-0.16693013906478882,0.1524917483329773,9.318154335021973,-0.31273478269577026,0.11093626171350479,0.023816024884581566,0.0,0.0,0.0,0.06728924065828323,-0.14729094505310059,9.277688026428223,0.2773968577384949,0.036899443715810776,0.018255671486258507,0.0,0.0,0.0,-0.7924118638038635,-8.482400894165039,8.9842529296875,1.0300261974334717,0.14758603274822235,0.3256230354309082,0.0,0.0,0.0,-2.798157215118408,-8.02429485321045,6.947070598602295,0.7589354515075684,0.14672812819480896,0.1490112841129303,0.0,0.0,0.0,0.0,0.0,0.0,0.0,0.0,0.0,0.0,0.0,0.0,0.0,0.0,0.0,0.0,0.0,0.0,0.0,0.0,0.0,0.0,0.0,0.0,0.0,0.0,0.0,0.0,0.0,0.0,0.0,0.0,0.0,0.0,0.0,0.0,0.0,0.0,0.0,-0.17898447811603546,0.06126047670841217,9.46725845336914,-0.18919295072555542,-0.005632536485791206,-0.031098563224077225,0.0,0.0,0.0,0.19458416104316711,-0.0643085166811943,9.489209175109863,0.07145389914512634,0.28095555305480957,-0.006128557957708836,0.0,0.0,0.0,0.03590875118970871,-0.14522579312324524,9.485581398010254,-0.17884451150894165,0.10686397552490234,0.05053219571709633,0.0,0.0,0.0,-1.9153079986572266,-2.8584299087524414,9.491520881652832,-1.5420790910720825,-0.11512750387191772,-0.5316298604011536,0.0,0.0,0.0,-0.20267219841480255,-0.010898906737565994,9.522315979003906,0.19689930975437164,-0.08326639980077744,0.07280875742435455,0.0,0.0,0.0,-1.431388020515442,-1.6292681694030762,9.535598754882812,-1.478777527809143,0.43209365010261536,0.370459645986557,0.0,0.0,0.0,0.04129650443792343,-0.22588561475276947,9.115055084228516,0.015815813094377518,-0.06825800985097885,0.0457792729139328,0.0,0.0,0.0,-0.017167525365948677,0.13498499989509583,9.496646881103516,0.04864296689629555,0.0542755089700222,-0.00031140822102315724,0.0,0.0,0.0
0.012,0.0,0.0,0.0,0.0,0.0,0.0,0.0,0.0,0.0,0.0,0.0,0.0,7.758182525634766,2.279048442840576,-186.8756103515625,10388.1220703125,20293.578125,-687.836669921875,0.0,0.0,0.0,0.0,0.0,0.0,0.00518798828125,0.0054931640625,0.00701904296875,0.00274658203125,0.003662109375,0.0048828125,0.0,0.0,0.0,0.0,0.0,0.0,0.0,0.0,0.0,0.0,0.0,0.0,0.0,0.0,0.0,0.0,0.0,0.0,0.0,0.0,0.0,0.0,0.0,0.0,0.0,0.0,0.0,0.0,0.0,0.0,0.0,0.0,0.0,0.0,0.0,0.0,0.0,0.0,0.0,0.0,0.0,0.0,0.0,0.0,0.0,0.0,0.0,0.0,0.0,0.0,0.0,0.0,0.0,0.0,0.0,0.0,0.0,0.0,0.0,0.0,0.0,0.0,0.0,0.0,-0.0002135719551006332,1.657896427786909e-05,-5.431033969216514e-07,6.813785148551688e-06,0.0,0.0,0.0,0.0,6.317664519883692e-05,-0.00021974658011458814,-0.00026369240367785096,-1.4878903130011167e-05,0.0001966264535440132,-3.346005905768834e-05,0.00018590017862152308,-0.00021417367679532617,-0.16730940341949463,0.15241803228855133,9.319450378417969,-0.31281906366348267,0.11086288839578629,0.024047058075666428,0.0,0.0,0.0,0.06556490808725357,-0.14587216079235077,9.278800964355469,0.2774592936038971,0.03667387366294861,0.018272055312991142,0.0,0.0,0.0,-0.7939150333404541,-8.482169151306152,8.98396110534668,1.0241793394088745,0.13615475594997406,0.32754942774772644,0.0,0.0,0.0,-2.791877508163452,-8.02182674407959,6.919533729553223,0.7563523054122925,0.14226892590522766,0.1367688924074173,0.0,0.0,0.0,0.0,0.0,0.0,0.0,0.0,0.0,0.0,0.0,0.0,0.0,0.0,0.0,0.0,0.0,0.0,0.0,0.0,0.0,0.0,0.0,0.0,0.0,0.0,0.0,0.0,0.0,0.0,0.0,0.0,0.0,0.0,0.0,0.0,0.0,0.0,0.0,-0.18002399802207947,0.06291110068559647,9.468174934387207,-0.18897829949855804,-0.0055646272376179695,-0.030832387506961823,0.0,0.0,0.0,0.19399763643741608,-0.06537260860204697,9.491263389587402,0.07185043394565582,0.28095555305480957,-0.00620192801579833,0.0,0.0,0.0,0.03395257890224457,-0.14449183642864227,9.485556602478027,-0.1788499802350998,0.10699979215860367,0.050385456532239914,0.0,0.0,0.0,-1.9125622510910034,-2.8529908657073975,9.495621681213379,-1.542179822921753,-0.10637958347797394,-0.5170811414718628,0.0,0.0,0.0,-0.19977480173110962,-0.011889279820024967,9.523024559020996,0.19661128520965576,-0.08319302648305893,0.07294457405805588,0.0,0.0,0.0,-1.4033948183059692,-1.666195034980774,9.524020195007324,-1.4850482940673828,0.4342123568058014,0.37337571382522583,0.0,0.0,0.0,0.04242042452096939,-0.22682683169841766,9.115739822387695,0.015900105237960815,-0.06817372143268585,0.04549125209450722,0.0,0.0,0.0,-0.016556421294808388,0.13463030755519867,9.498933792114258,0.04871087521314621,0.0542755089700222,-0.0002434991329209879,0.0,0.0,0.0
0.013,0.0,0.0,0.0,0.0,0.0,0.0,0.0,0.0,0.0,0.0,0.0,0.0,7.147830963134766,2.431636333465576,-186.5704345703125,10296.5693359375,20171.5078125,-733.613037109375,0.0,0.0,0.0,0.0,0.0,0.0,0.0048828125,0.0048828125,0.00732421875,0.00213623046875,0.003662109375,0.00457763671875,0.0,0.0,0.0,0.0,0.0,0.0,0.0,0.0,0.0,0.0,0.0,0.0,0.0,0.0,0.0,0.0,0.0,0.0,0.0,0.0,0.0,0.0,0.0,0.0,0.0,0.0,0.0,0.0,0.0,0.0,0.0,0.0,0.0,0.0,0.0,0.0,0.0,0.0,0.0,0.0,0.0,0.0,0.0,0.0,0.0,0.0,0.0,0.0,0.0,0.0,0.0,0.0,0.0,0.0,0.0,0.0,0.0,0.0,0.0,0.0,0.0,0.0,0.0,0.0,-0.00017077178927138448,1.4629520592279732e-05,-2.9660071959369816e-05,-8.603069545642938e-07,0.0,0.0,0.0,0.0,0.00014915806241333485,-0.00029447631095536053,-0.00036308885319158435,-2.1644431399181485e-05,0.00027374105411581695,-2.8256134100956842e-05,1.5434547094628215e-05,-6.926780042704195e-05,-0.16768868267536163,0.15234431624412537,9.320746421813965,-0.31290334463119507,0.11078951507806778,0.02427809126675129,0.0,0.0,0.0,0.06384056806564331,-0.14445337653160095,9.279913902282715,0.2775217592716217,0.03644829988479614,0.018288439139723778,0.0,0.0,0.0,-0.7954182028770447,-8.481937408447266,8.983670234680176,1.0183324813842773,0.12472347170114517,0.3294758200645447,0.0,0.0,0.0,-2.785597562789917,-8.019359588623047,6.891996383666992,0.7537690997123718,0.13780972361564636,0.1245265081524849,0.0,0.0,0.0,0.0,0.0,0.0,0.0,0.0,0.0,0.0,0.0,0.0,0.0,0.0,0.0,0.0,0.0,0.0,0.0,0.0,0.0,0.0,0.0,0.0,0.0,0.0,0.0,0.0,0.0,0.0,0.0,0.0,0.0,0.0,0.0,0.0,0.0,0.0,0.0,-0.18106351792812347,0.06456171721220016,9.469091415405273,-0.18876364827156067,-0.005496717989444733,-0.03056621178984642,0.0,0.0,0.0,0.19341109693050385,-0.06643669307231903,9.493318557739258,0.0722469687461853,0.28095555305480957,-0.006275298539549112,0.0,0.0,0.0,0.031996406614780426,-0.1437578648328781,9.485532760620117,-0.17885543406009674,0.10713560879230499,0.0502387136220932,0.0,0.0,0.0,-1.9098166227340698,-2.8475518226623535,9.499723434448242,-1.5422804355621338,-0.09763165563344955,-0.5025324821472168,0.0,0.0,0.0,-0.1968774050474167,-0.012879651971161366,9.523734092712402,0.19632326066493988,-0.08311965316534042,0.0730803906917572,0.0,0.0,0.0,-1.375401496887207,-1.7031219005584717,9.51244068145752,-1.491318941116333,0.4363310933113098,0.37629175186157227,0.0,0.0,0.0,0.04354434087872505,-0.22776806354522705,9.116424560546875,0.015984399244189262,-0.06808942556381226,0.045203231275081635,0.0,0.0,0.0,-0.015945319086313248,0.1342756152153015,9.501219749450684,0.04877878352999687,0.0542755089700222,-0.0001755900593707338,0.0,0.0,0.0
0.013,0.0,0.0,0.0,0.0,0.0,0.0,0.0,0.0,0.0,0.0,0.0,0.0,6.537479400634766,2.584224224090576,-186.2652587890625,10205.0166015625,20049.4375,-779.389404296875,0.0,0.0,0.0,0.0,0.0,0.0,0.0048828125,0.0048828125,0.00732421875,0.00213623046875,0.003662109375,0.00457763671875,0.0,0.0,0.0,0.0,0.0,0.0,0.0,0.0,0.0,0.0,0.0,0.0,0.0,0.0,0.0,0.0,0.0,0.0,0.0,0.0,0.0,0.0,0.0,0.0,0.0,0.0,0.0,0.0,0.0,0.0,0.0,0.0,0.0,0.0,0.0,0.0,0.0,0.0,0.0,0.0,0.0,0.0,0.0,0.0,0.0,0.0,0.0,0.0,0.0,0.0,0.0,0.0,0.0,0.0,0.0,0.0,0.0,0.0,0.0,0.0,0.0,0.0,0.0,0.0,-0.00012156859156675637,1.2122351108700968e-05,-8.172413799911737e-05,-7.346385700657265e-06,0.0,0.0,0.0,0.0,0.00023357346071861684,-0.0003614941379055381,-0.0004564686678349972,-2.12951945286477e-05,0.00034630479058250785,-1.9235456420574337e-05,-0.00016040881746448576,8.198663999792188e-05,-0.16806794703006744,0.1522706001996994,9.322042465209961,-0.31298765540122986,0.11071614921092987,0.02450912445783615,0.0,0.0,0.0,0.06211623176932335,-0.14303459227085114,9.281026840209961,0.2775841951370239,0.036222729831933975,0.018304822966456413,0.0,0.0,0.0,-0.7969213724136353,-8.481705665588379,8.983378410339355,1.0124856233596802,0.11329218745231628,0.3314022123813629,0.0,0.0,0.0,-2.779317855834961,-8.016891479492188,6.86445951461792,0.751185953617096,0.13335052132606506,0.1122841164469719,0.0,0.0,0.0,0.0,0.0,0.0,0.0,0.0,0.0,0.0,0.0,0.0,0.0,0.0,0.0,0.0,0.0,0.0,0.0,0.0,0.0,0.0,0.0,0.0,0.0,0.0,0.0,0.0,0.0,0.0,0.0,0.0,0.0,0.0,0.0,0.0,0.0,0.0,0.0,-0.18210303783416748,0.06621234118938446,9.47000789642334,-0.1885489970445633,-0.005428809206932783,-0.030300037935376167,0.0,0.0,0.0,0.1928245723247528,-0.06750078499317169,9.495372772216797,0.07264349609613419,0.28095555305480957,-0.006348668597638607,0.0,0.0,0.0,0.030040232464671135,-0.14302390813827515,9.48550796508789,-0.17886090278625488,0.10727142542600632,0.050091974437236786,0.0,0.0,0.0,-1.9070708751678467,-2.8421127796173096,9.503825187683105,-1.5423811674118042,-0.08888373523950577,-0.4879837930202484,0.0,0.0,0.0,-0.19398000836372375,-0.013870024122297764,9.524443626403809,0.196035236120224,-0.08304628729820251,0.07321620732545853,0.0,0.0,0.0,-1.3474082946777344,-1.7400487661361694,9.500862121582031,-1.4975895881652832,0.43844980001449585,0.3792078197002411,0.0,0.0,0.0,0.04466825723648071,-0.22870929539203644,9.117109298706055,0.01606869138777256,-0.06800513714551926,0.04491521045565605,0.0,0.0,0.0,-0.015334215015172958,0.13392092287540436,9.50350570678711,0.048846691846847534,0.0542755089700222,-0.0001076809930964373,0.0,0.0,0.0
0.013,0.0,0.0,0.0,0.0,0.0,0.0,0.0,0.0,0.0,0.0,0.0,0.0,6.690067291259766,2.279048442840576,-185.9600830078125,10296.5693359375,19988.40234375,-733.613037109375,0.0,0.0,0.0,0.0,0.0,0.0,0.00396728515625,0.0054931640625,0.0067138671875,0.00244140625,0.00274658203125,0.00396728515625,0.0,0.0,0.0,0.0,0.0,0.0,0.0,0.0,0.0,0.0,0.0,0.0,0.0,0.0,0.0,0.0,0.0,0.0,0.0,0.0,0.0,0.0,0.0,0.0,0.0,0.0,0.0,0.0,0.0,0.0,0.0,0.0,0.0,0.0,0.0,0.0,0.0,0.0,0.0,0.0,0.0,0.0,0.0,0.0,0.0,0.0,0.0,0.0,0.0,0.0,0.0,0.0,0.0,0.0,0.0,0.0,0.0,0.0,0.0,0.0,0.0,0.0,0.0,0.0,-6.861383735667914e-05,9.252718882635236e-06,-0.00014033536717761308,-1.1486637049529236e-05,0.0,0.0,0.0,0.0,0.0003078744630329311,-0.00041691839578561485,-0.0005359490751288831,-1.4673714758828282e-05,0.0004032248689327389,-1.142021210398525e-05,-0.00032618019031360745,0.0002254552091471851,-0.16858769953250885,0.15173855423927307,9.322586059570312,-0.31310316920280457,0.11067400127649307,0.02469255030155182,0.0,0.0,0.0,0.06079573184251785,-0.14177551865577698,9.28233528137207,0.27753931283950806,0.036078717559576035,0.01842034049332142,0.0,0.0,0.0,-0.7960314750671387,-8.48234748840332,8.985634803771973,1.0071582794189453,0.10109741240739822,0.33197396993637085,0.0,0.0,0.0,-2.7832717895507812,-8.0003023147583,6.848095417022705,0.7434657216072083,0.13126374781131744,0.1017891988158226,0.0,0.0,0.0,0.0,0.0,0.0,0.0,0.0,0.0,0.0,0.0,0.0,0.0,0.0,0.0,0.0,0.0,0.0,0.0,0.0,0.0,0.0,0.0,0.0,0.0,0.0,0.0,0.0,0.0,0.0,0.0,0.0,0.0,0.0,0.0,0.0,0.0,0.0,0.0,-0.1830020546913147,0.06695164740085602,9.470020294189453,-0.18848656117916107,-0.005428809206932783,-0.030353106558322906,0.0,0.0,0.0,0.19294048845767975,-0.06850344687700272,9.496870040893555,0.07256193459033966,0.2809500992298126,-0.006385353859513998,0.0,0.0,0.0,0.02923949435353279,-0.1421985924243927,9.485305786132812,-0.17891396582126617,0.1072632372379303,0.05001860484480858,0.0,0.0,0.0,-1.8951538801193237,-2.823460340499878,9.513320922851562,-1.542702317237854,-0.0795348659157753,-0.4732126295566559,0.0,0.0,0.0,-0.19302648305892944,-0.01451263576745987,9.525140762329102,0.19593064486980438,-0.08300960063934326,0.07321348041296005,0.0,0.0,0.0,-1.3244775533676147,-1.7796534299850464,9.495091438293457,-1.5030298233032227,0.4464973509311676,0.3809070885181427,0.0,0.0,0.0,0.04394657537341118,-0.22882521152496338,9.117666244506836,0.016181476414203644,-0.06789235025644302,0.04480515792965889,0.0,0.0,0.0,-0.015383358113467693,0.13362765312194824,9.504508972167969,0.04885215312242508,0.0542755089700222,-0.00011314207222312689,0.0,0.0,0.0
0.014,0.0,0.0,0.0,0.0,0.0,0.0,0.0,0.0,0.0,0.0,0.0,0.0,6.842655181884766,1.9738727807998657,-185.6549072265625,10388.1220703125,19927.3671875,-687.836669921875,0.0,0.0,0.0,0.0,0.0,0.0,0.00396728515625,0.0054931640625,0.0067138671875,0.00244140625,0.00274658203125,0.00396728515625,0.0,0.0,0.0,0.0,0.0,0.0,0.0,0.0,0.0,0.0,0.0,0.0,0.0,0.0,0.0,0.0,0.0,0.0,0.0,0.0,0.0,0.0,0.0,0.0,0.0,0.0,0.0,0.0,0.0,0.0,0.0,0.0,0.0,0.0,0.0,0.0,0.0,0.0,0.0,0.0,0.0,0.0,0.0,0.0,0.0,0.0,0.0,0.0,0.0,0.0,0.0,0.0,0.0,0.0,0.0,0.0,0.0,0.0,0.0,0.0,0.0,0.0,0.0,0.0,-1.2678970961133018e-05,6.224419848877005e-06,-0.00019312204676680267,-1.4841781194263604e-05,0.0,0.0,0.0,0.0,0.0003665150434244424,-0.0004560243687592447,-0.0005924777360633016,-7.911567081464455e-06,0.0004379248421173543,-7.5346988523961045e-06,-0.00047386588994413614,0.0003552032576408237,-0.16924795508384705,0.15074817836284637,9.322379112243652,-0.3132499158382416,0.11066307872533798,0.024828368797898293,0.0,0.0,0.0,0.05987907201051712,-0.14067615568637848,9.283838272094727,0.2773871123790741,0.03601627051830292,0.018634989857673645,0.0,0.0,0.0,-0.7927485108375549,-8.483864784240723,8.990439414978027,1.0023502111434937,0.08813914656639099,0.33119112253189087,0.0,0.0,0.0,-2.797459602355957,-7.969590663909912,6.842904090881348,0.7306084036827087,0.1315493881702423,0.09304174780845642,0.0,0.0,0.0,0.0,0.0,0.0,0.0,0.0,0.0,0.0,0.0,0.0,0.0,0.0,0.0,0.0,0.0,0.0,0.0,0.0,0.0,0.0,0.0,0.0,0.0,0.0,0.0,0.0,0.0,0.0,0.0,0.0,0.0,0.0,0.0,0.0,0.0,0.0,0.0,-0.18376058340072632,0.06677965074777603,9.469128608703613,-0.18857631087303162,-0.005496718920767307,-0.030725419521331787,0.0,0.0,0.0,0.19375886023044586,-0.0694446787238121,9.497811317443848,0.07200227677822113,0.28093916177749634,-0.006385353859513998,0.0,0.0,0.0,0.029594188556075096,-0.14128193259239197,9.484926223754883,-0.1790146380662918,0.10711103677749634,0.05001860484480858,0.0,0.0,0.0,-1.874065637588501,-2.7915945053100586,9.52821159362793,-1.5432438850402832,-0.06958504021167755,-0.4582190215587616,0.0,0.0,0.0,-0.19401685893535614,-0.014807487837970257,9.525825500488281,0.19600947201251984,-0.08300960063934326,0.07307220250368118,0.0,0.0,0.0,-1.3066092729568481,-1.8219358921051025,9.495129585266113,-1.5076395273208618,0.4604737162590027,0.3813895881175995,0.0,0.0,0.0,0.04137929528951645,-0.22811581194400787,9.118094444274902,0.016322756186127663,-0.06775107234716415,0.04487306624650955,0.0,0.0,0.0,-0.016092749312520027,0.13339580595493317,9.504227638244629,0.04879516735672951,0.0542755089700222,-0.00019197328947484493,0.0,0.0,0.0
0.015,0.0,0.0,0.0,0.0,0.0,0.0,0.0,0.0,0.0,0.0,0.0,0.0,6.995243072509766,2.126460552215576,-186.2652587890625,10479.6748046875,20110.47265625,-687.836669921875,0.0,0.0,0.0,0.0,0.0,0.0,0.0042724609375,0.00457763671875,0.00701904296875,0.0018310546875,0.0030517578125,0.00396728515625,0.0,0.0,0.0,0.0,0.0,0.0,0.0,0.0,0.0,0.0,0.0,0.0,0.0,0.0,0.0,0.0,0.0,0.0,0.0,0.0,0.0,0.0,0.0,0.0,0.0,0.0,0.0,0.0,0.0,0.0,0.0,0.0,0.0,0.0,0.0,0.0,0.0,0.0,0.0,0.0,0.0,0.0,0.0,0.0,0.0,0.0,0.0,0.0,0.0,0.0,0.0,0.0,0.0,0.0,0.0,0.0,0.0,0.0,0.0,0.0,0.0,0.0,0.0,0.0,4.361714672995731e-05,3.142434934488847e-06,-0.00022636575158685446,-1.8056121916742995e-05,0.0,0.0,0.0,0.0,0.000412384863011539,-0.00047882861690595746,-0.0006261692033149302,-4.01686156692449e-06,0.0004540093068499118,-6.664041393378284e-06,-0.0006053290562704206,0.00047316006384789944,-0.16990819573402405,0.14975780248641968,9.322172164916992,-0.3133966326713562,0.11065215617418289,0.024964187294244766,0.0,0.0,0.0,0.05896241217851639,-0.13957679271697998,9.2853422164917,0.27723491191864014,0.0359538197517395,0.01884964108467102,0.0,0.0,0.0,-0.7894654870033264,-8.485382080078125,8.995243072509766,0.9975422620773315,0.07518087327480316,0.3304082751274109,0.0,0.0,0.0,-2.811647415161133,-7.93887996673584,6.83771276473999,0.7177510857582092,0.13183502852916718,0.08429429680109024,0.0,0.0,0.0,0.0,0.0,0.0,0.0,0.0,0.0,0.0,0.0,0.0,0.0,0.0,0.0,0.0,0.0,0.0,0.0,0.0,0.0,0.0,0.0,0.0,0.0,0.0,0.0,0.0,0.0,0.0,0.0,0.0,0.0,0.0,0.0,0.0,0.0,0.0,0.0,-0.18451911211013794,0.06660765409469604,9.468235969543457,-0.18866606056690216,-0.005564628168940544,-0.03109773062169552,0.0,0.0,0.0,0.19457724690437317,-0.07038591057062149,9.49875259399414,0.0714426189661026,0.28092825412750244,-0.006385353859513998,0.0,0.0,0.0,0.02994888462126255,-0.14036527276039124,9.48454761505127,-0.17911531031131744,0.10695882886648178,0.05001860484480858,0.0,0.0,0.0,-1.8529772758483887,-2.7597286701202393,9.543102264404297,-1.5437854528427124,-0.0596352219581604,-0.4432254135608673,0.0,0.0,0.0,-0.19500723481178284,-0.01510233897715807,9.526510238647461,0.19608831405639648,-0.08300960063934326,0.07293091714382172,0.0,0.0,0.0,-1.288740873336792,-1.8642183542251587,9.495168685913086,-1.512249231338501,0.47445008158683777,0.3818720877170563,0.0,0.0,0.0,0.03881201520562172,-0.22740642726421356,9.118522644042969,0.01646403595805168,-0.06760978698730469,0.044940974563360214,0.0,0.0,0.0,-0.016802139580249786,0.13316397368907928,9.503947257995605,0.04873817786574364,0.0542755089700222,-0.00027080453583039343,0.0,0.0,0.0
0.015,0.0,0.0,0.0,0.0,0.0,0.0,0.0,0.0,0.0,0.0,0.0,0.0,7.147830963134766,2.279048442840576,-186.8756103515625,10571.2275390625,20293.578125,-687.836669921875,0.0,0.0,0.0,0.0,0.0,0.0,0.0042724609375,0.00457763671875,0.00701904296875,0.0018310546875,0.0030517578125,0.00396728515625,0.0,0.0,0.0,0.0,0.0,0.0,0.0,0.0,0.0,0.0,0.0,0.0,0.0,0.0,0.0,0.0,0.0,0.0,0.0,0.0,0.0,0.0,0.0,0.0,0.0,0.0,0.0,0.0,0.0,0.0,0.0,0.0,0.0,0.0,0.0,0.0,0.0,0.0,0.0,0.0,0.0,0.0,0.0,0.0,0.0,0.0,0.0,0.0,0.0,0.0,0.0,0.0,0.0,0.0,0.0,0.0,0.0,0.0,0.0,0.0,0.0,0.0,0.0,0.0,9.538247104501352e-05,-7.731136975053232e-08,-0.00021269111311994493,-2.0962692360626534e-05,0.0,0.0,0.0,0.0,0.0004472400760278106,-0.0004870081611443311,-0.0006387352477759123,9.987113571696682e-07,0.00045482630957849324,-8.462233381578699e-06,-0.0007178183877840638,0.0005763216177001595,-0.17056845128536224,0.14876742660999298,9.321964263916016,-0.3135433793067932,0.1106412336230278,0.02510000579059124,0.0,0.0,0.0,0.058045752346515656,-0.13847744464874268,9.286845207214355,0.2770827114582062,0.035891372710466385,0.019064290449023247,0.0,0.0,0.0,-0.7861824631690979,-8.486899375915527,9.00004768371582,0.9927342534065247,0.06222260370850563,0.3296253979206085,0.0,0.0,0.0,-2.8258352279663086,-7.908168792724609,6.832521438598633,0.7048937678337097,0.13212066888809204,0.07554684579372406,0.0,0.0,0.0,0.0,0.0,0.0,0.0,0.0,0.0,0.0,0.0,0.0,0.0,0.0,0.0,0.0,0.0,0.0,0.0,0.0,0.0,0.0,0.0,0.0,0.0,0.0,0.0,0.0,0.0,0.0,0.0,0.0,0.0,0.0,0.0,0.0,0.0,0.0,0.0,-0.18527765572071075,0.06643565744161606,9.467344284057617,-0.1887558102607727,-0.005632537417113781,-0.03147004172205925,0.0,0.0,0.0,0.19539561867713928,-0.07132713496685028,9.499693870544434,0.07088296115398407,0.28091731667518616,-0.006385353859513998,0.0,0.0,0.0,0.030303578823804855,-0.1394486129283905,9.48416805267334,-0.17921599745750427,0.10680662840604782,0.05001860484480858,0.0,0.0,0.0,-1.8318889141082764,-2.72786283493042,9.55799388885498,-1.5443271398544312,-0.04968540370464325,-0.42823177576065063,0.0,0.0,0.0,-0.19599761068820953,-0.015397191047668457,9.52719497680664,0.19616714119911194,-0.08300960063934326,0.07278963923454285,0.0,0.0,0.0,-1.2708725929260254,-1.9065008163452148,9.495206832885742,-1.5168589353561401,0.48842647671699524,0.38235458731651306,0.0,0.0,0.0,0.03624473512172699,-0.22669704258441925,9.118950843811035,0.0166053157299757,-0.06746850907802582,0.045008886605501175,0.0,0.0,0.0,-0.017511529847979546,0.1329321265220642,9.503665924072266,0.048681192100048065,0.0542755089700222,-0.0003496357530821115,0.0,0.0,0.0
0.015,0.0,0.0,0.0,0.0,0.0,0.0,0.0,0.0,0.0,0.0,0.0,0.0,7.147830963134766,2.279048442840576,-185.9600830078125,10845.8857421875,20110.47265625,-779.389404296875,0.0,0.0,0.0,0.0,0.0,0.0,0.0048828125,0.00518798828125,0.0067138671875,0.0018310546875,0.00396728515625,0.00396728515625,0.0,0.0,0.0,0.0,0.0,0.0,0.0,0.0,0.0,0.0,0.0,0.0,0.0,0.0,0.0,0.0,0.0,0.0,0.0,0.0,0.0,0.0,0.0,0.0,0.0,0.0,0.0,0.0,0.0,0.0,0.0,0.0,0.0,0.0,0.0,0.0,0.0,0.0,0.0,0.0,0.0,0.0,0.0,0.0,0.0,0.0,0.0,0.0,0.0,0.0,0.0,0.0,0.0,0.0,0.0,0.0,0.0,0.0,0.0,0.0,0.0,0.0,0.0,0.0,0.00014147121692076325,-3.3308863294223556e-06,-0.0001407251984346658,-2.414023401797749e-05,0.0,0.0,0.0,0.0,0.0004684636078309268,-0.0004807341319974512,-0.0006300269742496312,9.871015208773315e-06,0.0004434595466591418,-1.3402723197941668e-05,-0.0008078863029368222,0.0006603093934245408,-0.17122869193553925,0.14777705073356628,9.321757316589355,-0.3136901259422302,0.11063031107187271,0.025235824286937714,0.0,0.0,0.0,0.05712909251451492,-0.13737808167934418,9.288348197937012,0.2769305109977722,0.03582892566919327,0.019278939813375473,0.0,0.0,0.0,-0.7828994989395142,-8.48841667175293,9.004852294921875,0.9879262447357178,0.0492643341422081,0.32884255051612854,0.0,0.0,0.0,-2.8400230407714844,-7.877457618713379,6.827330112457275,0.6920364499092102,0.1324063092470169,0.06679939478635788,0.0,0.0,0.0,0.0,0.0,0.0,0.0,0.0,0.0,0.0,0.0,0.0,0.0,0.0,0.0,0.0,0.0,0.0,0.0,0.0,0.0,0.0,0.0,0.0,0.0,0.0,0.0,0.0,0.0,0.0,0.0,0.0,0.0,0.0,0.0,0.0,0.0,0.0,0.0,-0.18603618443012238,0.06626366078853607,9.466452598571777,-0.18884555995464325,-0.005700447130948305,-0.03184235468506813,0.0,0.0,0.0,0.1962139904499054,-0.07226836681365967,9.500635147094727,0.07032330334186554,0.28090640902519226,-0.006385353859513998,0.0,0.0,0.0,0.03065827488899231,-0.13853195309638977,9.48378849029541,-0.1793166697025299,0.10665442794561386,0.05001860484480858,0.0,0.0,0.0,-1.8108006715774536,-2.6959969997406006,9.572884559631348,-1.5448687076568604,-0.0397355817258358,-0.41323816776275635,0.0,0.0,0.0,-0.19698798656463623,-0.01569204218685627,9.52787971496582,0.1962459683418274,-0.08300960063934326,0.07264836132526398,0.0,0.0,0.0,-1.2530043125152588,-1.948783278465271,9.495244979858398,-1.5214686393737793,0.5024028420448303,0.38283708691596985,0.0,0.0,0.0,0.03367745503783226,-0.22598764300346375,9.119379043579102,0.01674659550189972,-0.06732723116874695,0.04507679492235184,0.0,0.0,0.0,-0.018220920115709305,0.13270027935504913,9.503384590148926,0.04862420633435249,0.0542755089700222,-0.0004284669703338295,0.0,0.0,0.0
0.016,0.0,0.0,0.0,0.0,0.0,0.0,0.0,0.0,0.0,0.0,0.0,0.0,7.147830963134766,2.279048442840576,-185.0445556640625,11120.5439453125,19927.3671875,-870.942138671875,0.0,0.0,0.0,0.0,0.0,0.0,0.0048828125,0.00518798828125,0.0067138671875,0.0018310546875,0.00396728515625,0.00396728515625,0.0,0.0,0.0,0.0,0.0,0.0,0.0,0.0,0.0,0.0,0.0,0.0,0.0,0.0,0.0,0.0,0.0,0.0,0.0,0.0,0.0,0.0,0.0,0.0,0.0,0.0,0.0,0.0,0.0,0.0,0.0,0.0,0.0,0.0,0.0,0.0,0.0,0.0,0.0,0.0,0.0,0.0,0.0,0.0,0.0,0.0,0.0,0.0,0.0,0.0,0.0,0.0,0.0,0.0,0.0,0.0,0.0,0.0,0.0,0.0,0.0,0.0,0.0,0.0,0.00018324595293961465,-6.289235443546204e-06,-3.4467368095647544e-05,-2.7316629712004215e-05,0.0,0.0,0.0,0.0,0.00047334699775092304,-0.00046016814303584397,-0.0006006486364640296,1.890977000584826e-05,0.0004231711500324309,-2.0716975996037945e-05,-0.0008725642110221088,0.0007233826327137649,-0.17188894748687744,0.14678668975830078,9.321550369262695,-0.31383687257766724,0.11061938852071762,0.025371644645929337,0.0,0.0,0.0,0.05621243268251419,-0.13627871870994568,9.289851188659668,0.27677831053733826,0.03576647490262985,0.01949359104037285,0.0,0.0,0.0,-0.7796164751052856,-8.489933013916016,9.00965690612793,0.9831182956695557,0.03630606457591057,0.32805970311164856,0.0,0.0,0.0,-2.85421085357666,-7.846746921539307,6.822139263153076,0.6791791319847107,0.13269196450710297,0.058051947504282,0.0,0.0,0.0,0.0,0.0,0.0,0.0,0.0,0.0,0.0,0.0,0.0,0.0,0.0,0.0,0.0,0.0,0.0,0.0,0.0,0.0,0.0,0.0,0.0,0.0,0.0,0.0,0.0,0.0,0.0,0.0,0.0,0.0,0.0,0.0,0.0,0.0,0.0,0.0,-0.186794713139534,0.06609166413545609,9.465559959411621,-0.1889353096485138,-0.005768356379121542,-0.03221466764807701,0.0,0.0,0.0,0.1970323771238327,-0.07320959866046906,9.50157642364502,0.06976364552974701,0.28089550137519836,-0.006385353859513998,0.0,0.0,0.0,0.031012970954179764,-0.13761529326438904,9.483409881591797,-0.17941734194755554,0.1065022274851799,0.05001860484480858,0.0,0.0,0.0,-1.7897123098373413,-2.664130926132202,9.587775230407715,-1.5454102754592896,-0.0297857616096735,-0.39824455976486206,0.0,0.0,0.0,-0.19797834753990173,-0.015986893326044083,9.528564453125,0.19632481038570404,-0.08300960063934326,0.07250707596540451,0.0,0.0,0.0,-1.2351359128952026,-1.9910656213760376,9.495284080505371,-1.5260783433914185,0.5163792371749878,0.38331958651542664,0.0,0.0,0.0,0.03111017495393753,-0.22527825832366943,9.119808197021484,0.016887875273823738,-0.06718594580888748,0.0451447032392025,0.0,0.0,0.0,-0.018930310383439064,0.13246844708919525,9.503104209899902,0.04856721684336662,0.0542755089700222,-0.000507298216689378,0.0,0.0,0.0
0.017,0.0,0.0,0.0,0.0,0.0,0.0,0.0,0.0,0.0,0.0,0.0,0.0,6.995243072509766,2.279048442840576,-185.0445556640625,10662.7802734375,19927.3671875,-825.165771484375,0.0,0.0,0.0,0.0,0.0,0.0,0.00518798828125,0.0054931640625,0.0067138671875,0.00244140625,0.00244140625,0.00335693359375,0.0,0.0,0.0,0.0,0.0,0.0,0.0,0.0,0.0,0.0,0.0,0.0,0.0,0.0,0.0,0.0,0.0,0.0,0.0,0.0,0.0,0.0,0.0,0.0,0.0,0.0,0.0,0.0,0.0,0.0,0.0,0.0,0.0,0.0,0.0,0.0,0.0,0.0,0.0,0.0,0.0,0.0,0.0,0.0,0.0,0.0,0.0,0.0,0.0,0.0,0.0,0.0,0.0,0.0,0.0,0.0,0.0,0.0,0.0,0.0,0.0,0.0,0.0,0.0,0.00021947160712443292,-8.956056262832135e-06,7.07240542396903e-05,-2.7419126126915216e-05,0.0,0.0,0.0,0.0,0.000458601483842358,-0.00042115693213418126,-0.0005445768474601209,2.4557957658544183e-05,0.00038627232424914837,-2.7219612093176693e-05,-0.0008999768760986626,0.000760402122978121,-0.17254918813705444,0.14579631388187408,9.321342468261719,-0.31398361921310425,0.11060846596956253,0.02550746314227581,0.0,0.0,0.0,0.05529577285051346,-0.13517937064170837,9.291354179382324,0.2766261100769043,0.035704027861356735,0.019708240404725075,0.0,0.0,0.0,-0.7763334512710571,-8.491450309753418,9.014461517333984,0.9783102869987488,0.023347795009613037,0.3272768557071686,0.0,0.0,0.0,-2.868398666381836,-7.816035747528076,6.816947937011719,0.6663218140602112,0.13297760486602783,0.049304500222206116,0.0,0.0,0.0,0.0,0.0,0.0,0.0,0.0,0.0,0.0,0.0,0.0,0.0,0.0,0.0,0.0,0.0,0.0,0.0,0.0,0.0,0.0,0.0,0.0,0.0,0.0,0.0,0.0,0.0,0.0,0.0,0.0,0.0,0.0,0.0,0.0,0.0,0.0,0.0,-0.18755324184894562,0.0659196674823761,9.464668273925781,-0.18902505934238434,-0.005836265627294779,-0.03258698061108589,0.0,0.0,0.0,0.19785074889659882,-0.07415083050727844,9.502517700195312,0.06920398771762848,0.2808845639228821,-0.006385353859513998,0.0,0.0,0.0,0.03136766701936722,-0.1366986334323883,9.483030319213867,-0.17951801419258118,0.10635002702474594,0.05001860484480858,0.0,0.0,0.0,-1.768623948097229,-2.632265090942383,9.602665901184082,-1.5459519624710083,-0.01983593963086605,-0.3832509517669678,0.0,0.0,0.0,-0.19896872341632843,-0.016281744465231895,9.52924919128418,0.1964036375284195,-0.08300960063934326,0.07236579805612564,0.0,0.0,0.0,-1.217267632484436,-2.0333480834960938,9.495322227478027,-1.5306880474090576,0.5303555727005005,0.3838020861148834,0.0,0.0,0.0,0.0285428948700428,-0.22456887364387512,9.12023639678955,0.017029155045747757,-0.06704466789960861,0.04521261528134346,0.0,0.0,0.0,-0.019639700651168823,0.13223659992218018,9.502822875976562,0.04851023107767105,0.0542755089700222,-0.0005861294339410961,0.0,0.0,0.0
0.017,0.0,0.0,0.0,0.0,0.0,0.0,0.0,0.0,0.0,0.0,0.0,0.0,6.842655181884766,2.279048442840576,-185.0445556640625,10205.0166015625,19927.3671875,-779.389404296875,0.0,0.0,0.0,0.0,0.0,0.0,0.00518798828125,0.0054931640625,0.0067138671875,0.00244140625,0.00244140625,0.00335693359375,0.0,0.0,0.0,0.0,0.0,0.0,0.0,0.0,0.0,0.0,0.0,0.0,0.0,0.0,0.0,0.0,0.0,0.0,0.0,0.0,0.0,0.0,0.0,0.0,0.0,0.0,0.0,0.0,0.0,0.0,0.0,0.0,0.0,0.0,0.0,0.0,0.0,0.0,0.0,0.0,0.0,0.0,0.0,0.0,0.0,0.0,0.0,0.0,0.0,0.0,0.0,0.0,0.0,0.0,0.0,0.0,0.0,0.0,0.0,0.0,0.0,0.0,0.0,0.0,0.00024863763246685266,-1.1377543160051573e-05,0.00014411579468287528,-2.3002274247119203e-05,0.0,0.0,0.0,0.0,0.00042857040534727275,-0.0003648561832960695,-0.00046326557639986277,2.8174292310723104e-05,0.0003297064686194062,-2.8293639843468554e-05,-0.0008906266302801669,0.0007709864876233041,-0.17320944368839264,0.1448059380054474,9.321135520935059,-0.31413033604621887,0.11059755086898804,0.025643281638622284,0.0,0.0,0.0,0.054379116743803024,-0.13408000767230988,9.292858123779297,0.27647390961647034,0.03564157709479332,0.01992289163172245,0.0,0.0,0.0,-0.7730504870414734,-8.49296760559082,9.019265174865723,0.9735022783279419,0.010389524511992931,0.3264940083026886,0.0,0.0,0.0,-2.8825862407684326,-7.785324573516846,6.811756610870361,0.6534644365310669,0.1332632452249527,0.040557049214839935,0.0,0.0,0.0,0.0,0.0,0.0,0.0,0.0,0.0,0.0,0.0,0.0,0.0,0.0,0.0,0.0,0.0,0.0,0.0,0.0,0.0,0.0,0.0,0.0,0.0,0.0,0.0,0.0,0.0,0.0,0.0,0.0,0.0,0.0,0.0,0.0,0.0,0.0,0.0,-0.18831177055835724,0.06574767082929611,9.463775634765625,-0.18911480903625488,-0.005904175341129303,-0.03295929357409477,0.0,0.0,0.0,0.19866912066936493,-0.07509206235408783,9.503458976745605,0.06864432245492935,0.2808736562728882,-0.006385353859513998,0.0,0.0,0.0,0.031722359359264374,-0.13578197360038757,9.482650756835938,-0.1796186864376068,0.10619781911373138,0.05001860484480858,0.0,0.0,0.0,-1.7475357055664062,-2.6003992557525635,9.61755657196045,-1.5464935302734375,-0.00988611951470375,-0.3682573437690735,0.0,0.0,0.0,-0.19995909929275513,-0.016576597467064857,9.529934883117676,0.19648246467113495,-0.08300960063934326,0.07222452014684677,0.0,0.0,0.0,-1.1993993520736694,-2.0756306648254395,9.495360374450684,-1.5352977514266968,0.544331967830658,0.3842845857143402,0.0,0.0,0.0,0.025975612923502922,-0.22385947406291962,9.120664596557617,0.017170434817671776,-0.06690338999032974,0.04528052359819412,0.0,0.0,0.0,-0.020349090918898582,0.1320047676563263,9.502542495727539,0.04845324158668518,0.0542755089700222,-0.0006649606511928141,0.0,0.0,0.0
0.018,0.0,0.0,0.0,0.0,0.0,0.0,0.0,0.0,0.0,0.0,0.0,0.0,6.842655181884766,2.279048442840576,-185.3497314453125,10113.4638671875,19988.40234375,-779.389404296875,0.0,0.0,0.0,0.0,0.0,0.0,0.00518798828125,0.00518798828125,0.0067138671875,0.00244140625,0.00274658203125,0.00396728515625,0.0,0.0,0.0,0.0,0.0,0.0,0.0,0.0,0.0,0.0,0.0,0.0,0.0,0.0,0.0,0.0,0.0,0.0,0.0,0.0,0.0,0.0,0.0,0.0,0.0,0.0,0.0,0.0,0.0,0.0,0.0,0.0,0.0,0.0,0.0,0.0,0.0,0.0,0.0,0.0,0.0,0.0,0.0,0.0,0.0,0.0,0.0,0.0,0.0,0.0,0.0,0.0,0.0,0.0,0.0,0.0,0.0,0.0,0.0,0.0,0.0,0.0,0.0,0.0,0.0002697596210055053,-1.3298057638166938e-05,0.0001656383537920192,-1.749297916830983e-05,0.0,0.0,0.0,0.0,0.0003917940193787217,-0.0003012295928783715,-0.00037131260614842176,3.2841882784850895e-05,0.00026374062872491777,-2.2290392735158093e-05,-0.000860987463966012,0.0007593913469463587,-0.17386968433856964,0.1438155621290207,9.320928573608398,-0.3142770826816559,0.11058662831783295,0.025779100134968758,0.0,0.0,0.0,0.05346245691180229,-0.13298064470291138,9.294361114501953,0.2763217091560364,0.0355791300535202,0.020137540996074677,0.0,0.0,0.0,-0.7697674632072449,-8.494484901428223,9.024069786071777,0.968694269657135,-0.0025687457527965307,0.3257111608982086,0.0,0.0,0.0,-2.8967740535736084,-7.754613876342773,6.806565284729004,0.6406071186065674,0.13354888558387756,0.031809598207473755,0.0,0.0,0.0,0.0,0.0,0.0,0.0,0.0,0.0,0.0,0.0,0.0,0.0,0.0,0.0,0.0,0.0,0.0,0.0,0.0,0.0,0.0,0.0,0.0,0.0,0.0,0.0,0.0,0.0,0.0,0.0,0.0,0.0,0.0,0.0,0.0,0.0,0.0,0.0,-0.18907029926776886,0.06557567417621613,9.462883949279785,-0.18920455873012543,-0.00597208458930254,-0.03333160653710365,0.0,0.0,0.0,0.19948750734329224,-0.07603329420089722,9.504400253295898,0.06808466464281082,0.2808627188205719,-0.006385353859513998,0.0,0.0,0.0,0.03207705542445183,-0.13486531376838684,9.482272148132324,-0.17971935868263245,0.10604561865329742,0.05001860484480858,0.0,0.0,0.0,-1.726447343826294,-2.568533420562744,9.632447242736816,-1.5470350980758667,6.37012199149467e-05,-0.3532637357711792,0.0,0.0,0.0,-0.20094947516918182,-0.01687144860625267,9.530619621276855,0.1965613067150116,-0.08300960063934326,0.0720832347869873,0.0,0.0,0.0,-1.1815309524536133,-2.117913007736206,9.495399475097656,-1.539907455444336,0.5583083629608154,0.384767085313797,0.0,0.0,0.0,0.023408332839608192,-0.2231500893831253,9.121092796325684,0.017311714589595795,-0.06676210463047028,0.045348431915044785,0.0,0.0,0.0,-0.02105848118662834,0.13177292048931122,9.5022611618042,0.04839625582098961,0.0542755089700222,-0.0007437918684445322,0.0,0.0,0.0
0.018,0.0,0.0,0.0,0.0,0.0,0.0,0.0,0.0,0.0,0.0,0.0,0.0,6.842655181884766,2.279048442840576,-185.6549072265625,10021.9111328125,20049.4375,-779.389404296875,0.0,0.0,0.0,0.0,0.0,0.0,0.00518798828125,0.00518798828125,0.0067138671875,0.00244140625,0.00274658203125,0.00396728515625,0.0,0.0,0.0,0.0,0.0,0.0,0.0,0.0,0.0,0.0,0.0,0.0,0.0,0.0,0.0,0.0,0.0,0.0,0.0,0.0,0.0,0.0,0.0,0.0,0.0,0.0,0.0,0.0,0.0,0.0,0.0,0.0,0.0,0.0,0.0,0.0,0.0,0.0,0.0,0.0,0.0,0.0,0.0,0.0,0.0,0.0,0.0,0.0,0.0,0.0,0.0,0.0,0.0,0.0,0.0,0.0,0.0,0.0,0.0,0.0,0.0,0.0,0.0,0.0,0.00028006601496599615,-1.4670948075945489e-05,0.00014059852401260287,-1.5112598703126423e-05,0.0,0.0,0.0,0.0,0.0003418471314944327,-0.00023109643370844424,-0.0002706802624743432,3.782819476327859e-05,0.0001892622676678002,-1.4157615623844322e-05,-0.0008100272971205413,0.0007198941893875599,-0.17452993988990784,0.142825186252594,9.320720672607422,-0.3144238293170929,0.11057570576667786,0.02591491863131523,0.0,0.0,0.0,0.05254579707980156,-0.13188129663467407,9.29586410522461,0.2761695086956024,0.035516683012247086,0.020352190360426903,0.0,0.0,0.0,-0.7664844989776611,-8.496002197265625,9.028874397277832,0.9638862609863281,-0.015527015551924706,0.32492831349372864,0.0,0.0,0.0,-2.910961866378784,-7.723902702331543,6.8013739585876465,0.6277498006820679,0.13383452594280243,0.023062149062752724,0.0,0.0,0.0,0.0,0.0,0.0,0.0,0.0,0.0,0.0,0.0,0.0,0.0,0.0,0.0,0.0,0.0,0.0,0.0,0.0,0.0,0.0,0.0,0.0,0.0,0.0,0.0,0.0,0.0,0.0,0.0,0.0,0.0,0.0,0.0,0.0,0.0,0.0,0.0,-0.18982882797718048,0.06540367752313614,9.461992263793945,-0.18929432332515717,-0.006039994303137064,-0.033703919500112534,0.0,0.0,0.0,0.20030587911605835,-0.0769745260477066,9.505340576171875,0.06752500683069229,0.280851811170578,-0.006385353859513998,0.0,0.0,0.0,0.03243175148963928,-0.1339486539363861,9.481892585754395,-0.17982003092765808,0.10589341819286346,0.05001860484480858,0.0,0.0,0.0,-1.7053591012954712,-2.536667585372925,9.647337913513184,-1.5475767850875854,0.010013521648943424,-0.3382701277732849,0.0,0.0,0.0,-0.20193985104560852,-0.017166299745440483,9.531304359436035,0.19664013385772705,-0.08300960063934326,0.07194195687770844,0.0,0.0,0.0,-1.1636626720428467,-2.1601953506469727,9.495437622070312,-1.5445172786712646,0.5722846984863281,0.3852495849132538,0.0,0.0,0.0,0.020841052755713463,-0.2224406898021698,9.12152099609375,0.017452994361519814,-0.0666208267211914,0.045416343957185745,0.0,0.0,0.0,-0.0217678714543581,0.13154107332229614,9.50197982788086,0.04833927005529404,0.0542755089700222,-0.0008226230856962502,0.0,0.0,0.0
0.018,0.0,0.0,0.0,0.0,0.0,0.0,0.0,0.0,0.0,0.0,0.0,0.0,6.842655181884766,2.431636333465576,-184.7393798828125,9930.3583984375,19988.40234375,-687.836669921875,0.0,0.0,0.0,0.0,0.0,0.0,0.00457763671875,0.00518798828125,0.00732421875,0.00213623046875,0.00274658203125,0.00396728515625,0.0,0.0,0.0,0.0,0.0,0.0,0.0,0.0,0.0,0.0,0.0,0.0,0.0,0.0,0.0,0.0,0.0,0.0,0.0,0.0,0.0,0.0,0.0,0.0,0.0,0.0,0.0,0.0,0.0,0.0,0.0,0.0,0.0,0.0,0.0,0.0,0.0,0.0,0.0,0.0,0.0,0.0,0.0,0.0,0.0,0.0,0.0,0.0,0.0,0.0,0.0,0.0,0.0,0.0,0.0,0.0,0.0,0.0,0.0,0.0,0.0,0.0,0.0,0.0,0.0002798479108605534,-1.5660461940569803e-05,9.24434425542131e-05,-1.587844053574372e-05,0.0,0.0,0.0,0.0,0.0002721462515182793,-0.0001512341550551355,-0.00015671939763706177,3.8822563510620967e-05,0.0001058205307344906,-9.101338946493343e-06,-0.0007305726176127791,0.0006515400018543005,-0.17519018054008484,0.1418348103761673,9.320513725280762,-0.3145705759525299,0.11056478321552277,0.026050737127661705,0.0,0.0,0.0,0.05162913724780083,-0.13078193366527557,9.297367095947266,0.27601730823516846,0.03545423224568367,0.020566841587424278,0.0,0.0,0.0,-0.7632014751434326,-8.497519493103027,9.033679008483887,0.9590782523155212,-0.028485285118222237,0.32414543628692627,0.0,0.0,0.0,-2.92514967918396,-7.6931915283203125,6.796182632446289,0.6148924827575684,0.1341201663017273,0.014314699918031693,0.0,0.0,0.0,0.0,0.0,0.0,0.0,0.0,0.0,0.0,0.0,0.0,0.0,0.0,0.0,0.0,0.0,0.0,0.0,0.0,0.0,0.0,0.0,0.0,0.0,0.0,0.0,0.0,0.0,0.0,0.0,0.0,0.0,0.0,0.0,0.0,0.0,0.0,0.0,-0.1905873715877533,0.06523168087005615,9.461099624633789,-0.1893840730190277,-0.006107903551310301,-0.034076228737831116,0.0,0.0,0.0,0.20112425088882446,-0.0779157504439354,9.506281852722168,0.06696534901857376,0.2808408737182617,-0.006385353859513998,0.0,0.0,0.0,0.032786447554826736,-0.13303199410438538,9.481513023376465,-0.1799207180738449,0.1057412177324295,0.05001860484480858,0.0,0.0,0.0,-1.6842707395553589,-2.5048017501831055,9.662229537963867,-1.5481183528900146,0.0199633426964283,-0.32327648997306824,0.0,0.0,0.0,-0.20293022692203522,-0.017461150884628296,9.531989097595215,0.1967189610004425,-0.08300960063934326,0.07180067896842957,0.0,0.0,0.0,-1.14579439163208,-2.2024779319763184,9.495475769042969,-1.5491269826889038,0.5862610936164856,0.38573208451271057,0.0,0.0,0.0,0.018273772671818733,-0.2217313051223755,9.121949195861816,0.017594274133443832,-0.06647954881191254,0.04548425227403641,0.0,0.0,0.0,-0.02247726172208786,0.13130924105644226,9.501699447631836,0.048282280564308167,0.0542755089700222,-0.0009014543611556292,0.0,0.0,0.0
0.019,0.0,0.0,0.0,0.0,0.0,0.0,0.0,0.0,0.0,0.0,0.0,0.0,6.842655181884766,2.584224224090576,-183.8238525390625,9838.8056640625,19927.3671875,-596.283935546875,0.0,0.0,0.0,0.0,0.0,0.0,0.00457763671875,0.00518798828125,0.00732421875,0.00213623046875,0.00274658203125,0.00396728515625,0.0,0.0,0.0,0.0,0.0,0.0,0.0,0.0,0.0,0.0,0.0,0.0,0.0,0.0,0.0,0.0,0.0,0.0,0.0,0.0,0.0,0.0,0.0,0.0,0.0,0.0,0.0,0.0,0.0,0.0,0.0,0.0,0.0,0.0,0.0,0.0,0.0,0.0,0.0,0.0,0.0,0.0,0.0,0.0,0.0,0.0,0.0,0.0,0.0,0.0,0.0,0.0,0.0,0.0,0.0,0.0,0.0,0.0,0.0,0.0,0.0,0.0,0.0,0.0,0.0002742033393587917,-1.6195248463191092e-05,4.1840477933874354e-05,-1.6287551261484623e-05,0.0,0.0,0.0,0.0,0.00020022463286295533,-7.483328226953745e-05,-4.720962169812992e-05,3.388349068700336e-05,3.2375784940086305e-05,-6.241420578589896e-06,-0.0006408029003068805,0.0005759078776463866,-0.17585043609142303,0.1408444494009018,9.320306777954102,-0.31471729278564453,0.11055386066436768,0.026186557486653328,0.0,0.0,0.0,0.050712477415800095,-0.12968257069587708,9.298871040344238,0.2758651077747345,0.03539178520441055,0.020781490951776505,0.0,0.0,0.0,-0.7599184513092041,-8.499035835266113,9.038482666015625,0.9542703032493591,-0.04144355654716492,0.3233625888824463,0.0,0.0,0.0,-2.9393374919891357,-7.662480354309082,6.79099178314209,0.6020351648330688,0.13440582156181335,0.005567250773310661,0.0,0.0,0.0,0.0,0.0,0.0,0.0,0.0,0.0,0.0,0.0,0.0,0.0,0.0,0.0,0.0,0.0,0.0,0.0,0.0,0.0,0.0,0.0,0.0,0.0,0.0,0.0,0.0,0.0,0.0,0.0,0.0,0.0,0.0,0.0,0.0,0.0,0.0,0.0,-0.19134590029716492,0.06505968421697617,9.46020793914795,-0.18947382271289825,-0.006175812799483538,-0.034448541700839996,0.0,0.0,0.0,0.20194262266159058,-0.07885698229074478,9.507223129272461,0.06640569120645523,0.2808299660682678,-0.006385353859513998,0.0,0.0,0.0,0.03314113989472389,-0.13211533427238464,9.481133460998535,-0.18002139031887054,0.10558900982141495,0.05001860484480858,0.0,0.0,0.0,-1.6631823778152466,-2.472935676574707,9.677120208740234,-1.5486599206924438,0.0299131628125906,-0.30828288197517395,0.0,0.0,0.0,-0.20392058789730072,-0.017756003886461258,9.532673835754395,0.19679778814315796,-0.08300960063934326,0.0716594010591507,0.0,0.0,0.0,-1.1279261112213135,-2.244760274887085,9.495513916015625,-1.553736686706543,0.6002374887466431,0.38621458411216736,0.0,0.0,0.0,0.015706490725278854,-0.22102192044258118,9.1223783493042,0.01773555390536785,-0.06633827090263367,0.04555216059088707,0.0,0.0,0.0,-0.02318665198981762,0.13107739388942719,9.501418113708496,0.048225294798612595,0.0542755089700222,-0.0009802855784073472,0.0,0.0,0.0
0.019,0.0,0.0,0.0,0.0,0.0,0.0,0.0,0.0,0.0,0.0,0.0,0.0,7.300418853759766,2.126460552215576,-184.4342041015625,10113.4638671875,19927.3671875,-779.389404296875,0.0,0.0,0.0,0.0,0.0,0.0,0.0048828125,0.00518798828125,0.00732421875,0.0018310546875,0.00274658203125,0.00396728515625,0.0,0.0,0.0,0.0,0.0,0.0,0.0,0.0,0.0,0.0,0.0,0.0,0.0,0.0,0.0,0.0,0.0,0.0,0.0,0.0,0.0,0.0,0.0,0.0,0.0,0.0,0.0,0.0,0.0,0.0,0.0,0.0,0.0,0.0,0.0,0.0,0.0,0.0,0.0,0.0,0.0,0.0,0.0,0.0,0.0,0.0,0.0,0.0,0.0,0.0,0.0,0.0,0.0,0.0,0.0,0.0,0.0,0.0,0.0,0.0,0.0,0.0,0.0,0.0,0.0002622002502903342,-1.604286808287725e-05,-1.3184064300730824e-05,-1.4290113540482707e-05,0.0,0.0,0.0,0.0,0.00013171270256862044,-4.81844472233206e-06,5.26034455106128e-05,2.4901211872929707e-05,-3.05632856907323e-05,-4.0487338992534205e-06,-0.0005427752621471882,0.0004942188388668001,-0.17651067674160004,0.1398540735244751,9.320098876953125,-0.31486403942108154,0.11054293811321259,0.0263223759829998,0.0,0.0,0.0,0.04979581758379936,-0.12858322262763977,9.300374031066895,0.27571290731430054,0.03532933443784714,0.02099614217877388,0.0,0.0,0.0,-0.7566354870796204,-8.500553131103516,9.04328727722168,0.9494622945785522,-0.05440182611346245,0.3225797414779663,0.0,0.0,0.0,-2.9535253047943115,-7.63176965713501,6.785800457000732,0.5891778469085693,0.13469146192073822,-0.003180198837071657,0.0,0.0,0.0,0.0,0.0,0.0,0.0,0.0,0.0,0.0,0.0,0.0,0.0,0.0,0.0,0.0,0.0,0.0,0.0,0.0,0.0,0.0,0.0,0.0,0.0,0.0,0.0,0.0,0.0,0.0,0.0,0.0,0.0,0.0,0.0,0.0,0.0,0.0,0.0,-0.19210442900657654,0.06488768756389618,9.459315299987793,-0.1895635724067688,-0.006243722513318062,-0.03482085466384888,0.0,0.0,0.0,0.20276100933551788,-0.07979821413755417,9.508164405822754,0.0658460333943367,0.28081902861595154,-0.006385353859513998,0.0,0.0,0.0,0.033495835959911346,-0.1311986744403839,9.480754852294922,-0.18012206256389618,0.10543680936098099,0.05001860484480858,0.0,0.0,0.0,-1.6420941352844238,-2.4410698413848877,9.692010879516602,-1.5492016077041626,0.0398629829287529,-0.29328927397727966,0.0,0.0,0.0,-0.20491096377372742,-0.01805085502564907,9.533358573913574,0.1968766301870346,-0.08300960063934326,0.07151811569929123,0.0,0.0,0.0,-1.1100577116012573,-2.2870428562164307,9.495553016662598,-1.5583463907241821,0.6142138242721558,0.38669708371162415,0.0,0.0,0.0,0.013139210641384125,-0.22031252086162567,9.122806549072266,0.01787683367729187,-0.0661969855427742,0.04562007263302803,0.0,0.0,0.0,-0.02389604225754738,0.1308455616235733,9.501137733459473,0.048168305307626724,0.0542755089700222,-0.0010591167956590652,0.0,0.0,0.0
0.020,0.0,0.0,0.0,0.0,0.0,0.0,0.0,0.0,0.0,0.0,0.0,0.0,7.758182525634766,1.6686969995498657,-185.0445556640625,10388.1220703125,19927.3671875,-962.494873046875,0.0,0.0,0.0,0.0,0.0,0.0,0.0048828125,0.00518798828125,0.00732421875,0.0018310546875,0.00274658203125,0.00396728515625,0.0,0.0,0.0,0.0,0.0,0.0,0.0,0.0,0.0,0.0,0.0,0.0,0.0,0.0,0.0,0.0,0.0,0.0,0.0,0.0,0.0,0.0,0.0,0.0,0.0,0.0,0.0,0.0,0.0,0.0,0.0,0.0,0.0,0.0,0.0,0.0,0.0,0.0,0.0,0.0,0.0,0.0,0.0,0.0,0.0,0.0,0.0,0.0,0.0,0.0,0.0,0.0,0.0,0.0,0.0,0.0,0.0,0.0,0.0,0.0,0.0,0.0,0.0,0.0,0.0002320811036042869,-1.4925647519703489e-05,-8.177675772458315e-05,-1.0160054443986155e-05,0.0,0.0,0.0,0.0,3.054956323467195e-05,9.345878061139956e-05,0.00018783011182677,1.3012035196879879e-05,-0.0001234055234817788,-4.160030584898777e-06,-0.00038410507841035724,0.0003570676199160516,-0.17717093229293823,0.1388636976480484,9.319891929626465,-0.31501078605651855,0.1105320155620575,0.026458194479346275,0.0,0.0,0.0,0.04887915775179863,-0.12748385965824127,9.30187702178955,0.2755607068538666,0.03526688739657402,0.021210791543126106,0.0,0.0,0.0,-0.7533524632453918,-8.502070426940918,9.048091888427734,0.9446542859077454,-0.06736009567975998,0.32179689407348633,0.0,0.0,0.0,-2.9677131175994873,-7.601058483123779,6.780609130859375,0.5763205289840698,0.13497710227966309,-0.011927648447453976,0.0,0.0,0.0,0.0,0.0,0.0,0.0,0.0,0.0,0.0,0.0,0.0,0.0,0.0,0.0,0.0,0.0,0.0,0.0,0.0,0.0,0.0,0.0,0.0,0.0,0.0,0.0,0.0,0.0,0.0,0.0,0.0,0.0,0.0,0.0,0.0,0.0,0.0,0.0,-0.19286295771598816,0.06471569091081619,9.458423614501953,-0.18965332210063934,-0.006311631761491299,-0.03519316762685776,0.0,0.0,0.0,0.203579381108284,-0.08073944598436356,9.509105682373047,0.06528637558221817,0.28080812096595764,-0.006385353859513998,0.0,0.0,0.0,0.0338505320250988,-0.13028201460838318,9.480375289916992,-0.18022273480892181,0.10528460890054703,0.05001860484480858,0.0,0.0,0.0,-1.6210057735443115,-2.4092040061950684,9.706901550292969,-1.5497431755065918,0.04981280490756035,-0.2782956659793854,0.0,0.0,0.0,-0.2059013396501541,-0.018345706164836884,9.534043312072754,0.19695545732975006,-0.08300960063934326,0.07137683779001236,0.0,0.0,0.0,-1.0921894311904907,-2.3293251991271973,9.495591163635254,-1.5629560947418213,0.6281902194023132,0.38717958331108093,0.0,0.0,0.0,0.010571930557489395,-0.21960313618183136,9.123234748840332,0.01801811344921589,-0.06605570763349533,0.04568798094987869,0.0,0.0,0.0,-0.024605432525277138,0.13061371445655823,9.500856399536133,0.04811131954193115,0.0542755089700222,-0.0011379480129107833,0.0,0.0,0.0
0.021,0.0,0.0,0.0,0.0,0.0,0.0,0.0,0.0,0.0,0.0,0.0,0.0,7.300418853759766,1.8212848901748657,-184.4342041015625,10205.0166015625,19866.33203125,-825.165771484375,0.0,0.0,0.0,0.0,0.0,0.0,0.0048828125,0.00518798828125,0.00701904296875,0.0018310546875,0.00213623046875,0.003662109375,0.0,0.0,0.0,0.0,0.0,0.0,0.0,0.0,0.0,0.0,0.0,0.0,0.0,0.0,0.0,0.0,0.0,0.0,0.0,0.0,0.0,0.0,0.0,0.0,0.0,0.0,0.0,0.0,0.0,0.0,0.0,0.0,0.0,0.0,0.0,0.0,0.0,0.0,0.0,0.0,0.0,0.0,0.0,0.0,0.0,0.0,0.0,0.0,0.0,0.0,0.0,0.0,0.0,0.0,0.0,0.0,0.0,0.0,0.0,0.0,0.0,0.0,0.0,0.0,0.00018364987045060843,-1.290071668336168e-05,-0.00010741787264123559,-6.3530460465699434e-06,0.0,0.0,0.0,0.0,-9.529772796668112e-05,0.00021068847854621708,0.00034367304760962725,2.531077370804269e-06,-0.0002362873638048768,-8.0687705121818e-06,-0.00017771270358934999,0.0001735726254992187,-0.1770726442337036,0.13898655772209167,9.321394920349121,-0.31501078605651855,0.11039619892835617,0.02631145343184471,0.0,0.0,0.0,0.04994324594736099,-0.13035669922828674,9.299945831298828,0.2754818797111511,0.03541909158229828,0.021131960675120354,0.0,0.0,0.0,-0.7352660894393921,-8.504293441772461,9.04525089263916,0.9417501091957092,-0.07235140353441238,0.3210218846797943,0.0,0.0,0.0,-2.9814586639404297,-7.574097156524658,6.7950119972229,0.5647391676902771,0.1356937289237976,-0.011667202226817608,0.0,0.0,0.0,0.0,0.0,0.0,0.0,0.0,0.0,0.0,0.0,0.0,0.0,0.0,0.0,0.0,0.0,0.0,0.0,0.0,0.0,0.0,0.0,0.0,0.0,0.0,0.0,0.0,0.0,0.0,0.0,0.0,0.0,0.0,0.0,0.0,0.0,0.0,0.0,-0.194208025932312,0.06245395541191101,9.45962142944336,-0.18986797332763672,-0.006238261237740517,-0.035255614668130875,0.0,0.0,0.0,0.2015387862920761,-0.07998090982437134,9.508420944213867,0.06564230471849442,0.2806668281555176,-0.006390814669430256,0.0,0.0,0.0,0.034106943756341934,-0.13122324645519257,9.479763984680176,-0.1805732101202011,0.10521123558282852,0.05001314356923103,0.0,0.0,0.0,-1.5934761762619019,-2.3644661903381348,9.701318740844727,-1.5522767305374146,0.061913926154375076,-0.2657502591609955,0.0,0.0,0.0,-0.2058030515909195,-0.022110646590590477,9.53437328338623,0.19702883064746857,-0.0830150619149208,0.07144474983215332,0.0,0.0,0.0,-1.0768744945526123,-2.3725244998931885,9.501206398010254,-1.5657386779785156,0.6464644074440002,0.3832038342952728,0.0,0.0,0.0,0.011636019684374332,-0.2190903127193451,9.124382972717285,0.0179228987544775,-0.06614000350236893,0.04562553018331528,0.0,0.0,0.0,-0.025069117546081543,0.1318850815296173,9.501565933227539,0.04832597076892853,0.05428097024559975,-0.0012058577267453074,0.0,0.0,0.0
0.021,0.0,0.0,0.0,0.0,0.0,0.0,0.0,0.0,0.0,0.0,0.0,0.0,6.842655181884766,1.9738727807998657,-183.8238525390625,10021.9111328125,19805.296875,-687.836669921875,0.0,0.0,0.0,0.0,0.0,0.0,0.0048828125,0.00518798828125,0.00701904296875,0.0018310546875,0.00213623046875,0.003662109375,0.0,0.0,0.0,0.0,0.0,0.0,0.0,0.0,0.0,0.0,0.0,0.0,0.0,0.0,0.0,0.0,0.0,0.0,0.0,0.0,0.0,0.0,0.0,0.0,0.0,0.0,0.0,0.0,0.0,0.0,0.0,0.0,0.0,0.0,0.0,0.0,0.0,0.0,0.0,0.0,0.0,0.0,0.0,0.0,0.0,0.0,0.0,0.0,0.0,0.0,0.0,0.0,0.0,0.0,0.0,0.0,0.0,0.0,0.0,0.0,0.0,0.0,0.0,0.0,0.00013430399121716619,-1.0538775313762017e-05,-4.0838203858584166e-05,-6.160712473501917e-06,0.0,0.0,0.0,0.0,-0.0001895864261314273,0.0002896653604693711,0.00044483080273494124,-9.116026831179624e-07,-0.0003120719047728926,-1.2930613593198359e-05,-9.15412965696305e-06,1.973936741705984e-05,-0.1769743710756302,0.13910940289497375,9.322897911071777,-0.31501078605651855,0.11026037484407425,0.026164712384343147,0.0,0.0,0.0,0.051007337868213654,-0.1332295536994934,9.298013687133789,0.27540305256843567,0.03557129204273224,0.021053127944469452,0.0,0.0,0.0,-0.7171797156333923,-8.50651741027832,9.042410850524902,0.9388459324836731,-0.07734271883964539,0.3202468454837799,0.0,0.0,0.0,-2.995204210281372,-7.547135829925537,6.809414386749268,0.5531578063964844,0.13641034066677094,-0.011406755074858665,0.0,0.0,0.0,0.0,0.0,0.0,0.0,0.0,0.0,0.0,0.0,0.0,0.0,0.0,0.0,0.0,0.0,0.0,0.0,0.0,0.0,0.0,0.0,0.0,0.0,0.0,0.0,0.0,0.0,0.0,0.0,0.0,0.0,0.0,0.0,0.0,0.0,0.0,0.0,-0.19555310904979706,0.06019221618771553,9.460819244384766,-0.1900826245546341,-0.006164890713989735,-0.03531806543469429,0.0,0.0,0.0,0.19949817657470703,-0.07922237366437912,9.507736206054688,0.06599823385477066,0.2805255651473999,-0.006396275479346514,0.0,0.0,0.0,0.034363359212875366,-0.13216447830200195,9.479153633117676,-0.1809236705303192,0.10513786971569061,0.05000768229365349,0.0,0.0,0.0,-1.5659465789794922,-2.3197286128997803,9.695734977722168,-1.5548101663589478,0.0740150511264801,-0.2532048523426056,0.0,0.0,0.0,-0.20570477843284607,-0.02587558701634407,9.534703254699707,0.19710220396518707,-0.08302052319049835,0.07151265442371368,0.0,0.0,0.0,-1.0615595579147339,-2.4157238006591797,9.506821632385254,-1.5685213804244995,0.664738655090332,0.3792280852794647,0.0,0.0,0.0,0.01270010881125927,-0.21857748925685883,9.125532150268555,0.017827685922384262,-0.06622429192066193,0.04556308314204216,0.0,0.0,0.0,-0.0255328007042408,0.1331564337015152,9.502275466918945,0.0485406219959259,0.05428643152117729,-0.0012737674405798316,0.0,0.0,0.0
0.021,0.0,0.0,0.0,0.0,0.0,0.0,0.0,0.0,0.0,0.0,0.0,0.0,6.842655181884766,1.6686969995498657,-184.1290283203125,10021.9111328125,19744.26171875,-733.613037109375,0.0,0.0,0.0,0.0,0.0,0.0,0.00518798828125,0.0048828125,0.0067138671875,0.0018310546875,0.003662109375,0.00457763671875,0.0,0.0,0.0,0.0,0.0,0.0,0.0,0.0,0.0,0.0,0.0,0.0,0.0,0.0,0.0,0.0,0.0,0.0,0.0,0.0,0.0,0.0,0.0,0.0,0.0,0.0,0.0,0.0,0.0,0.0,0.0,0.0,0.0,0.0,0.0,0.0,0.0,0.0,0.0,0.0,0.0,0.0,0.0,0.0,0.0,0.0,0.0,0.0,0.0,0.0,0.0,0.0,0.0,0.0,0.0,0.0,0.0,0.0,0.0,0.0,0.0,0.0,0.0,0.0,8.675436401972547e-05,-7.988535799086094e-06,3.726383511093445e-05,-8.45663180371048e-06,0.0,0.0,0.0,0.0,-0.00026560769765637815,0.00034353366936556995,0.0005158812273293734,-1.936954731718288e-06,-0.0003655287146102637,-1.2997213161725085e-05,0.00014022256073076278,-0.00011667971557471901,-0.17687608301639557,0.13923226296901703,9.32440185546875,-0.31501078605651855,0.11012455821037292,0.026017971336841583,0.0,0.0,0.0,0.052071426063776016,-0.13610239326953888,9.296082496643066,0.2753241956233978,0.0357234962284565,0.0209742970764637,0.0,0.0,0.0,-0.6990934014320374,-8.508740425109863,9.039569854736328,0.935941755771637,-0.08233402669429779,0.3194718360900879,0.0,0.0,0.0,-3.0089499950408936,-7.520174503326416,6.823817253112793,0.5415764451026917,0.13712696731090546,-0.011146308854222298,0.0,0.0,0.0,0.0,0.0,0.0,0.0,0.0,0.0,0.0,0.0,0.0,0.0,0.0,0.0,0.0,0.0,0.0,0.0,0.0,0.0,0.0,0.0,0.0,0.0,0.0,0.0,0.0,0.0,0.0,0.0,0.0,0.0,0.0,0.0,0.0,0.0,0.0,0.0,-0.1968981772661209,0.05793048068881035,9.462017059326172,-0.19029727578163147,-0.006091519724577665,-0.03538051247596741,0.0,0.0,0.0,0.19745758175849915,-0.0784638375043869,9.507051467895508,0.0663541704416275,0.28038427233695984,-0.006401736754924059,0.0,0.0,0.0,0.0346197709441185,-0.13310572504997253,9.47854232788086,-0.1812741458415985,0.1050644963979721,0.05000222101807594,0.0,0.0,0.0,-1.5384169816970825,-2.2749907970428467,9.690152168273926,-1.5573437213897705,0.08611617237329483,-0.2406594604253769,0.0,0.0,0.0,-0.20560649037361145,-0.029640525579452515,9.535033226013184,0.19717557728290558,-0.0830259844660759,0.07158056646585464,0.0,0.0,0.0,-1.0462446212768555,-2.458922863006592,9.512436866760254,-1.5713039636611938,0.683012843132019,0.3752523362636566,0.0,0.0,0.0,0.013764198869466782,-0.21806466579437256,9.126680374145508,0.017732471227645874,-0.06630858778953552,0.045500632375478745,0.0,0.0,0.0,-0.025996485725045204,0.13442780077457428,9.502985000610352,0.04875527322292328,0.05429189279675484,-0.0013416771544143558,0.0,0.0,0.0
0.022,0.0,0.0,0.0,0.0,0.0,0.0,0.0,0.0,0.0,0.0,0.0,0.0,6.842655181884766,1.3635212182998657,-184.4342041015625,10021.9111328125,19683.2265625,-779.389404296875,0.0,0.0,0.0,0.0,0.0,0.0,0.00518798828125,0.0048828125,0.0067138671875,0.0018310546875,0.003662109375,0.00457763671875,0.0,0.0,0.0,0.0,0.0,0.0,0.0,0.0,0.0,0.0,0.0,0.0,0.0,0.0,0.0,0.0,0.0,0.0,0.0,0.0,0.0,0.0,0.0,0.0,0.0,0.0,0.0,0.0,0.0,0.0,0.0,0.0,0.0,0.0,0.0,0.0,0.0,0.0,0.0,0.0,0.0,0.0,0.0,0.0,0.0,0.0,0.0,0.0,0.0,0.0,0.0,0.0,0.0,0.0,0.0,0.0,0.0,0.0,0.0,0.0,0.0,0.0,0.0,0.0,3.236948396079242e-05,-4.995109520677943e-06,5.271714326227084e-05,-1.0416893019282725e-05,0.0,0.0,0.0,0.0,-0.0003482583269942552,0.00039929748163558543,0.0005922598065808415,-4.390902176965028e-06,-0.0004231013008393347,-7.828391971997917e-06,0.0003104911302216351,-0.00027054379461333156,-0.17677779495716095,0.1393551081418991,9.325904846191406,-0.31501078605651855,0.1099887415766716,0.02587123028934002,0.0,0.0,0.0,0.05313551425933838,-0.13897524774074554,9.294150352478027,0.2752453684806824,0.03587569668889046,0.020895464345812798,0.0,0.0,0.0,-0.6810070276260376,-8.510963439941406,9.036728858947754,0.9330375790596008,-0.08732534199953079,0.3186968266963959,0.0,0.0,0.0,-3.022695541381836,-7.493213176727295,6.83821964263916,0.5299950838088989,0.13784359395503998,-0.01088586263358593,0.0,0.0,0.0,0.0,0.0,0.0,0.0,0.0,0.0,0.0,0.0,0.0,0.0,0.0,0.0,0.0,0.0,0.0,0.0,0.0,0.0,0.0,0.0,0.0,0.0,0.0,0.0,0.0,0.0,0.0,0.0,0.0,0.0,0.0,0.0,0.0,0.0,0.0,0.0,-0.19824324548244476,0.05566874146461487,9.463213920593262,-0.19051192700862885,-0.006018149200826883,-0.03544296324253082,0.0,0.0,0.0,0.19541698694229126,-0.07770530134439468,9.506366729736328,0.06671009957790375,0.28024300932884216,-0.006407197564840317,0.0,0.0,0.0,0.03487618267536163,-0.13404695689678192,9.477931022644043,-0.1816246211528778,0.1049911230802536,0.0499967597424984,0.0,0.0,0.0,-1.5108873844146729,-2.230252981185913,9.684569358825684,-1.5598772764205933,0.09821729362010956,-0.2281140685081482,0.0,0.0,0.0,-0.20550820231437683,-0.03340546786785126,9.535364151000977,0.1972489356994629,-0.08303144574165344,0.0716484785079956,0.0,0.0,0.0,-1.0309295654296875,-2.502122163772583,9.518052101135254,-1.5740866661071777,0.701287031173706,0.3712765872478485,0.0,0.0,0.0,0.014828287996351719,-0.2175518423318863,9.127828598022461,0.017637256532907486,-0.06639288365840912,0.04543818533420563,0.0,0.0,0.0,-0.02646016888320446,0.13569916784763336,9.503693580627441,0.048969924449920654,0.05429735407233238,-0.00140958686824888,0.0,0.0,0.0
