Time,Gyro_X,Gyro_Y,Gyro_Z,Acc_X,Acc_Y,Acc_Z,Euler_X,Euler_Y,Euler_Z,Tilt_X,Tilt_Y,Tilt_Z,Quat_W,Quat_X,Quat_Y,Quat_Z
0.0,30.90677893779357,8.080311765891137,-7.270844680210468,-0.3125581190037391,0.7078925430198111,0.7886689073671981,0.19896426796913147,0.08507360517978668,-1.7880619207488735e-10,-16.432390674305715,39.84291433099936,44.455681824781095,0.9999982118606567,0.0017362895887345076,0.0007424060604535043,-1.2890358220829512e-06
0.0005,30.905053941011875,8.080311119711231,-7.27039035762828,-0.3125507428588498,0.7078882026068399,0.7886602306020152,0.39718371629714966,0.16984079778194427,5.44789713341487e-10,-16.43216104889387,39.84309979922336,44.45573969918578,0.9999929666519165,0.0034660708624869585,0.0014821310760453343,-5.137202606420033e-06
0.001,30.897326423699397,8.0808628065312,-7.2675548190577075,-0.31254864282929373,0.7078798573063236,0.7886527373776232,0.5946553349494934,0.2543022930622101,5.3280015815948545e-11,-16.432220170020997,39.84302467256435,44.455697861115034,0.999984085559845,0.005189310759305954,0.002219174522906542,-1.1516169251990505e-05
0.0015,30.883604120896283,8.081965943107063,-7.262340993027856,-0.3125517803722266,0.7078675059498951,0.788646408290425,0.7913764119148254,0.3384588658809662,5.168862005078267e-10,-16.43256635256673,39.84268996716534,44.45555639771324,0.999971866607666,0.00690597714856267,0.0029535358771681786,-2.039762148342561e-05
0.002,30.863897205536976,8.083620367036195,-7.254752065153245,-0.3125601111808008,0.7078511496361588,0.7886412310898824,0.9873440265655518,0.42231109738349915,-4.103901593555115e-11,-16.433197524159883,39.84209663641982,44.45531513263468,0.9999561309814453,0.008616036735475063,0.0036852145567536354,-3.1753337680129334e-05
0.0025,30.83821828779373,8.085826627540952,-7.244791482052814,-0.3125735851699164,0.7078307917254856,0.7886372006130828,1.1825554370880127,0.5058597326278687,-3.38872471750129e-11,-16.434111225258626,39.84124557299018,44.454973627865,0.9999369978904724,0.010319460183382034,0.004414210096001625,-4.555513442028314e-05
0.003,30.806582412233425,8.088585974519091,-7.232462955544807,-0.3125921464675457,0.7078064378321769,0.7886343187057363,1.377008318901062,0.5891057848930359,1.536226007514685e-10,-16.4353046096583,39.840137611110116,44.45453118600831,0.9999145865440369,0.012016217224299908,0.0051405238918960094,-6.177492468850687e-05
0.0035,30.769007052791945,8.091900345879347,-7.217770467111125,-0.3126157334116626,0.7077780958140036,0.7886325941297487,1.5707000494003296,0.6720496416091919,3.8756450826404887e-10,-16.43677444542739,39.83877352916461,44.453986853035474,0.9998888969421387,0.013706278055906296,0.005864155013114214,-8.038466330617666e-05
0.004,30.725512105572584,8.095772353183722,-7.200718272624092,-0.31264427855281857,0.7077457757591544,0.7886320424575531,1.763627529144287,0.7546921372413635,1.935427929034006e-10,-16.43851711627234,39.83715405254218,44.45333942148955,0.9998599290847778,0.015389611944556236,0.006585103925317526,-0.0001013563887681812
0.0045000000000000005,30.67611987947806,8.100205265622252,-7.181310907328101,-0.3126777086623881,0.7077094899706092,0.7886326859533904,1.9557887315750122,0.8370341658592224,-5.309455097801674e-10,-16.440528623331158,39.83527985675188,44.45258743414274,0.9998277425765991,0.017066191881895065,0.007303372025489807,-0.00012466222688090056
0.005,30.62085508468808,8.105202992349618,-7.15955319106765,-0.31271594474651254,0.7076692529479711,0.7886345534417674,2.1471810340881348,0.9190762042999268,8.081151303684919e-10,-16.442804587395667,39.83315157079758,44.45172918809901,0.9997923374176025,0.018735989928245544,0.008018959313631058,-0.00015027433983050287
0.0055,30.559744818997295,8.110770063216282,-7.135450233753125,-0.3127589020657627,0.7076250813667897,0.7886376801633344,2.337801694869995,1.0008190870285034,1.0911991310535996e-09,-16.445340251561806,39.83076978080137,44.450762739336064,0.9997537732124329,0.020398976281285286,0.008731866255402565,-0.00017816499166656286
0.006,30.49281855203089,8.116911607930978,-7.1090074410546045,-0.3128064901605367,0.7075769940554073,0.7886421076184589,2.527649164199829,1.0822638273239136,6.064979629627487e-10,-16.448130484307118,39.828135033866495,44.449685907679076,0.9997122287750244,0.02205512672662735,0.009442095644772053,-0.00020830654830206186
0.006500000000000001,30.420108107357873,8.123633333694457,-7.080230520313722,-0.31285861288220373,0.7075250119693741,0.7886478833987824,2.71671986579895,1.1634105443954468,-2.129612708401396e-09,-16.451169782993937,39.82524784217086,44.448496282198676,0.9996674656867981,0.02370441146194935,0.010149645619094372,-0.00024067141930572689
0.007,30.341647642524187,8.130941501347989,-7.049125486662814,-0.3129151684300044,0.7074691581634659,0.7886550610070768,2.905012369155884,1.2442606687545776,-1.0507250625124698e-09,-16.454452277796975,39.822108687279986,44.44719122702441,0.9996197819709778,0.02534680813550949,0.010854520834982395,-0.00027523210155777633
0.0075,30.257473627031242,8.138842900083825,-7.015698669340122,-0.31297604939370827,0.7074094577613622,0.7886636996657376,3.092524766921997,1.3248144388198853,1.9447843335740345e-09,-16.457971736052926,39.818718024669245,44.445767887565076,0.9995691180229187,0.026982290670275688,0.011556720361113548,-0.0003119611938018352
0.008,30.16762481828644,8.147344820767604,-6.979956718189177,-0.3130411428020247,0.7073459379230204,0.7886738641142795,3.2792532444000244,1.4050724506378174,1.4178750395998918e-09,-16.461721567029656,39.815076288442874,44.44422319712508,0.9995154142379761,0.028610829263925552,0.012256243266165257,-0.0003508312802296132
0.0085,30.072142235556672,8.156455027926588,-6.941906610329961,-0.3131103301767631,0.7072786278098171,0.7886856243961972,3.465197801589966,1.4850355386734009,-1.5727912305862901e-09,-16.465694827112223,39.811183896238944,44.44255388390822,0.999458909034729,0.03023240901529789,0.012953093275427818,-0.00039181523607112467
0.009000000000000001,29.971069131956096,8.166181730460295,-6.901555656988995,-0.31318348759272735,0.7072075585474993,0.7886990556356069,3.650355100631714,1.564704418182373,-2.46465781117422e-09,-16.4698842254022,39.80704125430651,44.44075647839627,0.9993994832038879,0.03184700384736061,0.013647271320223808,-0.00043488587834872305
0.0095,29.86445096450363,8.176533551133184,-6.858911510474765,-0.3132604857433245,0.7071327631870098,0.7887142378040779,3.834723711013794,1.6440796852111816,5.961046323221808e-09,-16.474282129726518,39.80264876274248,44.43882732109172,0.9993372559547424,0.033454589545726776,0.014338778331875801,-0.00048001602408476174
0.01,29.752335362286153,8.187519494911914,-6.813982171284646,-0.3133411900118708,0.7070542766632549,0.7887312554780938,4.018301010131836,1.7231619358062744,2.2538750865663815e-09,-16.478880573051693,39.798006820874434,44.436762570612366,0.9992722272872925,0.035055141896009445,0.015027615241706371,-0.0005271788104437292
0.0105,29.634772092766802,8.199148916212135,-6.766775995328852,-0.31342546054856363,0.706972135751872,0.7887501975875897,4.201085090637207,1.8019518852233887,-5.812481607136988e-09,-16.483671260298905,39.79311583277547,44.43455821212512,0.9992044568061829,0.036648645997047424,0.015713782981038094,-0.0005763474036939442
0.011,29.511813026279036,8.211431485122556,-6.717301701256449,-0.3135131523530872,0.7068863790240673,0.7887711571560455,4.383076190948486,1.8804502487182617,6.8994121527055086e-09,-16.48864557555451,39.78797621289637,44.43221006610548,0.9991340637207031,0.03823507949709892,0.01639728434383869,-0.0006274947663769126
0.0115,29.38351209874962,8.224377152676288,-6.665568377868172,-0.313604115362817,0.7067970467995949,0.7887942310326101,4.56427001953125,1.958657145500183,2.7784010647735613e-09,-16.493794589670856,39.782588391800466,44.42971379740924,0.9990609884262085,0.03981442004442215,0.01707812026143074,-0.0006805945304222405
0.012,29.249925272694945,8.237996115241687,-6.611585491600185,-0.3136981945465783,0.7067041810979491,0.7888195196167647,4.744664669036865,2.0365731716156006,1.6863216378837365e-09,-16.49910906825102,39.77695282198598,44.427064924641776,0.9989851713180542,0.041386645287275314,0.01775628700852394,-0.0007356196874752641
0.0125,29.11111049653802,8.25229877810709,-6.555362894062589,-0.3137952300039116,0.7066078255878397,0.7888471265760281,4.92426061630249,2.11419939994812,6.865670254541101e-10,-16.504579480011227,39.77106998378035,44.42425882981027,0.9989068508148193,0.04295174404978752,0.01843179203569889,-0.0007925439858809114
0.013000000000000001,28.96712766229377,8.267295718335655,-6.496910829616168,-0.3138950570697912,0.7065080255350292,0.7888771585572365,5.103054523468018,2.191535472869873,-4.594419511505521e-09,-16.510196005513915,39.7649403912908,44.42129076824329,0.9988259673118591,0.04450969398021698,0.01910462975502014,-0.000851340766530484
0.0135,28.818038561673752,8.28299764696839,-6.436239942970367,-0.3139975064247434,0.7064048277486114,0.7889097248919336,5.2810444831848145,2.2685818672180176,-1.2364020918198548e-09,-16.515948546263992,39.75856459839523,44.41815587876217,0.9987424612045288,0.0460604727268219,0.019774802029132843,-0.0009119836031459272
0.014,28.663906840661056,8.299415370654797,-6.373361286785186,-0.31410240421028884,0.7062982805258055,0.7889449372964145,5.4582319259643555,2.3453404903411865,7.800681878222804e-09,-16.521826734160076,39.75194320475739,44.414849194087445,0.9986566305160522,0.04760408028960228,0.020442316308617592,-0.0009744466515257955
0.0145,28.504797952609554,8.316559752792287,-6.308286329259358,-0.31420957214965456,0.7061884335953486,0.7889829095669842,5.634613990783691,2.4218103885650635,-4.080845439347058e-09,-16.527819941292773,39.745076861849796,44.41136565146392,0.9985683560371399,0.04914049059152603,0.02110716700553894,-0.0010387036018073559
0.015,28.34077910992218,8.334441674256258,-6.241026961686811,-0.3143188276736643,0.7060753380595652,0.7890237572709919,5.810186862945557,2.4979918003082275,1.1275205213934214e-09,-16.533917290080286,39.73796627896835,44.407700103486825,0.998477578163147,0.050669681280851364,0.02176935225725174,-0.0011047279695048928
0.0155,28.171919234364477,8.353071993804177,-6.171595505963056,-0.3144299840517386,0.7059590463351995,0.789067597434221,5.984951972961426,2.573885679244995,5.208897313480065e-09,-16.54010766373237,39.730612229221826,44.40384732911152,0.9983845353126526,0.05219164863228798,0.022428875789046288,-0.0011724940268322825
0.016,27.998288906071238,8.37246150823754,-6.100004722022977,-0.3145428505279054,0.7058396120930854,0.7891145482252058,6.158906936645508,2.649492025375366,-1.6362361118793523e-11,-16.546379717032128,39.7230155554801,44.399802044828476,0.998289167881012,0.053706370294094086,0.023085735738277435,-0.0012419759295880795
0.0165,27.81996031130513,8.39262091240641,-6.026267815191279,-0.31465723246173777,0.7057170901967462,0.789164728637065,6.33204984664917,2.724810838699341,-5.942208058939968e-09,-16.552721887425374,39.7151771762645,44.3955589159853,0.9981914162635803,0.05521383136510849,0.023739930242300034,-0.0013131474843248725
0.017,27.637007189026892,8.413560759141674,-5.950398443426671,-0.3147729314741109,0.7055915366400025,0.7892182581674366,6.5043816566467285,2.7998428344726562,-7.56709450655535e-09,-16.55912240640614,39.70709809156404,44.39111256823689,0.9980915188789368,0.05671403184533119,0.02439146116375923,-0.0013859833125025034
0.0175,27.449504776338355,8.435291419200379,-5.872410724440719,-0.31488974559768074,0.7054630084836718,0.7892752564971063,6.675900459289551,2.8745877742767334,3.2754172707427642e-09,-16.565569311187037,39.69877938856132,44.38645759910463,0.9979894161224365,0.0582069531083107,0.02504032664000988,-0.0014604574535042048
0.018000000000000002,27.25752975285961,8.457823041309847,-5.792319242672245,-0.3150074694319669,0.7053315637914529,0.7893358431679172,6.846602916717529,2.9490456581115723,-1.908086133539655e-09,-16.572050456641957,39.69022224725231,44.38158858962554,0.9978850483894348,0.05969257280230522,0.02568652294576168,-0.0015365444123744965
0.0185,27.06116018410319,8.48116551239578,-5.7101390560979395,-0.31512589430292726,0.7051972615650688,0.789400137260557,7.016491889953613,3.0232176780700684,-9.885285479072081e-09,-16.57855352750877,39.68142794594386,44.37650011607141,0.9977786540985107,0.061170898377895355,0.02633005566895008,-0.001614218926988542
0.019,26.86047546390839,8.505328418079861,-5.625885702859968,-0.3152448084269004,0.7050601616787645,0.7894682570728087,7.1855669021606445,3.0971033573150635,-2.1913386660799006e-08,-16.585066050838734,39.6723978666141,44.37118676171885,0.9976702332496643,0.0626419186592102,0.02697092294692993,-0.001693455851636827
0.0195,26.655556255999368,8.530321003531135,-5.5395752076911595,-0.3153639970787859,0.7049203248132387,0.7895403197988543,7.353821754455566,3.1707024574279785,2.4594315917170206e-08,-16.591575408678953,39.66313350012001,44.365643128649495,0.9975596070289612,0.06410561501979828,0.027609119191765785,-0.0017742292257025838
0.02,26.446484434731726,8.556152134755623,-5.45122408811851,-0.31548324276432843,0.7047778123890974,0.7896164412102186,7.52125883102417,3.2440145015716553,3.7197860347504275e-09,-16.598068850973817,39.6536364512378,44.35986384956108,0.9974469542503357,0.06556198000907898,0.028244640678167343,-0.0018565142527222633
0.0205,26.233343025092083,8.582830260407095,-5.360849360425672,-0.3156023253963663,0.7046326864999143,0.7896967353389313,7.68787956237793,3.31704044342041,1.0429594077265847e-08,-16.60453350867079,39.643908443521546,44.35384359956873,0.9973323345184326,0.06701100617647171,0.028877487406134605,-0.0019402854377403855
0.021,26.016216142015686,8.610363374201151,-5.268468545355298,-0.3157210224748942,0.7044850098449796,0.7897813141634809,7.853681564331055,3.389780282974243,1.7621875514350904e-08,-16.610956407015514,39.63395132396623,44.34757710797654,0.9972158670425415,0.06845269352197647,0.02950766123831272,-0.002025518100708723
0.021500000000000002,25.795188929087708,8.638758978013538,-5.174099673532005,-0.3158391092707918,0.7043348456618269,0.7898702872981304,8.01866340637207,3.462233066558838,-2.738838267291044e-09,-16.61732447902075,39.62376706746188,44.341059169999106,0.9970974922180176,0.06988703459501266,0.030135154724121094,-0.002112187212333083
0.022,25.570347496693255,8.668024045741639,-5.077761290587116,-0.31595635901305613,0.7041822576586141,0.7899637616861582,8.182823181152344,3.534398078918457,-7.529608936351906e-09,-16.62362457909315,39.613357781025634,44.33428465841265,0.9969770908355713,0.0713139995932579,0.030759960412979126,-0.002200267044827342
0.0225,25.34177885968193,8.698164988007242,-4.979472461966271,-0.31607254307937527,0.7040273099464431,0.7900618412975644,8.346165657043457,3.606276512145996,-1.7065877599975465e-08,-16.629843496801765,39.6027257077998,44.32724853511584,0.9968549609184265,0.07273362576961517,0.031382083892822266,-0.0022897340822964907
0.023,25.109570874612114,8.729187617776162,-4.879252777401428,-0.3161874311898715,0.703870066971698,0.7901646268317984,8.508686065673828,3.6778676509857178,2.3140762195339448e-08,-16.635967970771315,39.5918732308036,44.319945862579814,0.9967309832572937,0.07414588332176208,0.032001521438360214,-0.002380562946200371
0.0235,24.87381217664078,8.761097116968944,-4.777122355028866,-0.31630079160384,0.7037105934484809,0.7902722154260285,8.670387268066406,3.7491707801818848,-1.1179408510031408e-08,-16.641984702683356,39.58080287642804,44.31237181516768,0.9966052174568176,0.07555077224969864,0.032618261873722076,-0.0024727294221520424
0.024,24.63459211612341,8.793898004134462,-4.67310184513519,-0.3164123913192996,0.7035489542912226,0.7903847003694714,8.831267356872559,3.820186138153076,-1.4788366975437839e-08,-16.647880371367965,39.56951731766316,44.30452169030373,0.9964778423309326,0.07694830000400543,0.03323230519890785,-0.002566208131611347
0.0245,24.392000694989616,8.82759410325627,-4.567212433513582,-0.3165219962751684,0.7033852145475493,0.790502170824299,8.991323471069336,3.8909122943878174,-2.1142509964988676e-08,-16.653641646967937,39.55801937704793,44.29639091947239,0.9963486790657043,0.07833843678236008,0.033843643963336945,-0.002660974394530058
0.025,24.14612850295834,8.86218851375909,-4.459475844413032,-0.3166293715558737,0.703219439331475,0.7906247115535984,9.150559425354004,3.9613499641418457,-1.6098672617204102e-08,-16.659255205158004,39.54631202933384,44.28797507902812,0.9962178468704224,0.07972119748592377,0.034452278167009354,-0.002757004462182522
0.025500000000000002,23.89706665365707,8.897683581780104,-4.349914343063396,-0.31673428159819456,0.7030516937569949,0.7907524026568753,9.30897331237793,4.031497478485107,2.1327783983338122e-08,-16.664707741400303,39.53439840385393,44.279269900796606,0.9960853457450867,0.0810965895652771,0.03505820035934448,-0.0028542738873511553
0.026000000000000002,23.64490672070858,8.934080872767533,-4.238550737759896,-0.31683649040013784,0.7028820428721597,0.7908853193135562,9.466567993164062,4.101356506347656,2.499234952324514e-08,-16.669985985217956,39.522281786589645,44.270271282449,0.9959513545036316,0.08246461302042007,0.03566141054034233,-0.0029527589213103056
0.0265,23.389740673848053,8.971381145465676,-4.125408381490805,-0.3169357617316342,0.7027105515936878,0.7910235315349364,9.623340606689453,4.170923709869385,3.6479170795189475e-09,-16.675076714467913,39.509965621928814,44.26097529763045,0.9958158135414124,0.0838252604007721,0.036261897534132004,-0.0030524348840117455
0.027,23.131660815132655,9.009584327342985,-4.010511173092777,-0.317031859346846,0.7025372846421977,0.7911671039250017,9.77929401397705,4.240200042724609,-2.6103689876322278e-08,-16.67996676959436,39.49745351410896,44.25137820582527,0.995678722858429,0.08517853915691376,0.036859650164842606,-0.003153277561068535
0.0275,22.870759715305503,9.048689491516608,-3.893883557918708,-0.31712454719786515,0.7023623064781228,0.7913160954505339,9.934427261352539,4.309184551239014,-1.2370761304225653e-08,-16.684643067843503,39.48474922834077,44.241476461941126,0.995540201663971,0.08652444928884506,0.037454668432474136,-0.00325526250526309
0.028,22.607130150374033,9.088694835223563,-3.775550528003625,-0.31721358964957885,0.7021856812383677,0.7914705592208894,10.088735580444336,4.377875328063965,-1.1400350885537591e-08,-16.689092617421007,39.47185669160737,44.23126672559512,0.9954000115394592,0.08786297589540482,0.038046944886446,-0.003358366433531046
0.0285,22.340865038462773,9.129597659885434,-3.6555376217146924,-0.3172987516954784,0.7020074726737823,0.7916305422778248,10.242228507995605,4.4462738037109375,-5.315696327556907e-09,-16.69330253157266,39.45877999313627,44.220745870085544,0.995258629322052,0.0891941636800766,0.038636479526758194,-0.003462565829977393
0.029,22.072057376999005,9.171394352810061,-3.5338709228721896,-0.31737979917417763,0.7018277440875078,0.7917960853957167,10.394899368286133,4.514378070831299,-3.0373300319297414e-08,-16.697260042569376,39.44552338454133,44.20991099103345,0.9951157569885254,0.09051796793937683,0.03922325745224953,-0.0035678360145539045
0.029500000000000002,21.80080018028892,9.214080370570311,-3.4105770593287215,-0.3174564989864069,0.7016465582742575,0.7919672228925061,10.546751976013184,4.582187652587891,1.1051583648225005e-08,-16.70095251557734,39.43209127963327,44.19875941467865,0.9949715733528137,0.0918344184756279,0.0398072712123394,-0.00367415277287364
0.03,21.52718641754068,9.257650224096208,-3.2856832009949613,-0.31752861931224513,0.7014639774605841,0.792143982451681,10.697785377502441,4.649700164794922,1.757896939125203e-08,-16.704367462394366,39.41848825389729,44.18728870581532,0.9948260188102722,0.0931435227394104,0.04038851335644722,-0.003781493753194809
0.0305,21.251308951390016,9.302097465513645,-3.159217057300613,-0.3175959298283457,0.7012800632462036,0.7923263849555742,10.848005294799805,4.716917037963867,-2.83749379548226e-09,-16.707492555033358,39.40471904363901,44.17549667535398,0.9946792721748352,0.09444529563188553,0.04096698388457298,-0.003889835672453046
0.031,20.973260476982123,9.34741467675863,-3.0312068740802163,-0.31765820192491423,0.7010948765464101,0.7925144443302538,10.997405052185059,4.783834934234619,5.7745587866975256e-08,-16.71031563913431,39.39078854479818,44.163381387495555,0.9945311546325684,0.09573972225189209,0.0415426604449749,-0.0039991531521081924
0.0315,20.69313346166308,9.39359345999275,-2.9016814298741385,-0.317715208922187,0.7009084775356507,0.7927081674022393,11.145987510681152,4.8504533767700195,-3.6881356635376505e-08,-16.712824747186012,39.376701811433016,44.15094116650575,0.9943817853927612,0.09702681750059128,0.04211554303765297,-0.004109425004571676
0.032,20.411020085332307,9.44062442984172,-2.7706700316358597,-0.3177667262861611,0.7007209255922918,0.7929075537672702,11.293758392333984,4.916773319244385,2.775511198649383e-08,-16.715008111539134,39.362464053876806,44.13817460307734,0.9942313432693481,0.09830660372972488,0.042685624212026596,-0.004220625851303339
0.0325,20.127012181506107,9.488497207474877,-2.638202509837535,-0.3178125318433248,0.7005322792446408,0.793112595671319,11.440713882446289,4.982791900634766,-4.2581252301943096e-08,-16.71685417719256,39.34808063657071,44.1250805602698,0.9940797090530396,0.09957907348871231,0.043252892792224884,-0.0043327342718839645
0.033,19.841201179141436,9.53720041653996,-2.504309212966653,-0.3178524059941284,0.7003425961182494,0.7933232779040277,11.586858749389648,5.048508644104004,3.531954817503902e-08,-16.718351614334946,39.33355707557626,44.111658179015514,0.993927001953125,0.10084424912929535,0.043817341327667236,-0.0044457255862653255
0.0335,19.553678045267127,9.586721680963409,-2.3690210014074746,-0.31788613192494564,0.7001519328845546,0.7935395777047123,11.732190132141113,5.113921165466309,-3.1525683397148896e-08,-16.71948933062415,39.31889903577294,44.09790688318348,0.9937731027603149,0.1021021381020546,0.04437895491719246,-0.004559578374028206
0.034,19.2645332284683,9.63704762462285,-2.2323692407018263,-0.31791349581826256,0.6999603452108872,0.7937614646810717,11.876710891723633,5.17902946472168,3.056606301399256e-09,-16.720256483187065,39.30411232774588,44.083826384191596,0.9936181902885437,0.10335274785757065,0.044937726110219955,-0.004674267955124378
0.0345,18.973856603268747,9.688163872894357,-2.0943857941848245,-0.3179342870608367,0.6997678877118872,0.7939889007406878,12.020423889160156,5.243831634521484,-2.757114891949186e-08,-16.720642490323364,39.2892029043705,44.069416685160085,0.9934622049331665,0.1045961007475853,0.04549364373087883,-0.004789772443473339
0.035,18.68173741545368,9.740055056073366,-1.9551030149919324,-0.31794829844956835,0.6995746139023652,0.7942218400354167,12.163326263427734,5.308326721191406,1.84722939167159e-08,-16.720637042896467,39.27417685710074,44.05467808459877,0.9933052062988281,0.10583218932151794,0.046046700328588486,-0.004906068090349436
0.035500000000000004,18.388264228374116,9.79270481466444,-1.8145537374348377,-0.3179553263948237,0.6993805761516314,0.7944602289187036,12.30542278289795,5.3725128173828125,-4.131890918301906e-08,-16.720230115396223,39.25904041196871,44.03961117962272,0.9931472539901733,0.10706103593111038,0.04659688100218773,-0.005023133009672165
0.036000000000000004,18.093524870272645,9.846095806530998,-1.6727712677445274,-0.31795517112094834,0.699185825639336,0.7947040059158746,12.4467134475708,5.436389923095703,-3.805287462910201e-08,-16.71941197665738,39.24379992530414,44.024216868690516,0.9929883480072021,0.1082826554775238,0.04714418202638626,-0.005140943918377161
0.0365,17.797606382668196,9.900209715892712,-1.529789374181008,-0.3179476368637172,0.6989904123128377,0.7949531017073905,12.58720588684082,5.499955654144287,1.817008943305609e-08,-16.718173200219614,39.2284618791826,44.008496353861894,0.9928286075592041,0.1094970852136612,0.04768859222531319,-0.005259479396045208
0.037,17.500594969836154,9.95502726415421,-1.3856422765100573,-0.31793253206445826,0.6987943848461297,0.7952074391250648,12.726889610290527,5.56320858001709,-2.8697485277007218e-08,-16.716504674314315,39.2130328766119,43.992451142570424,0.9926678538322449,0.11070430278778076,0.048230092972517014,-0.005378716625273228
0.0375,17.202575949418687,10.010528222545275,-1.2403646348484796,-0.3179096695605972,0.6985977906003484,0.7954669331611987,12.865777015686035,5.626148700714111,-3.867159392711983e-08,-16.714397611464683,39.19751963646674,43.97608304890964,0.9925063848495483,0.11190434545278549,0.04876868054270744,-0.005498632322996855
0.038,16.903633704197706,10.066691426548925,-1.0939915378803418,-0.31787886677236826,0.6984006755858827,0.7957314909905678,13.003864288330078,5.688770771026611,1.4383844337828577e-08,-16.711843557686063,39.181928988182385,43.95939419443098,0.9923439025878906,0.11309722065925598,0.049304332584142685,-0.0056192041374742985
0.0385,16.60385163506202,10.123494792090446,-0.9465584904477146,-0.3178399458854378,0.6982030844261053,0.7960010120051845,13.141156196594238,5.7510786056518555,-4.493551131190543e-08,-16.708834401273965,39.16626786621821,43.94238700845282,0.9921807646751404,0.11428295820951462,0.049837056547403336,-0.0057404120452702045
0.039,16.30331211519828,10.180915333456628,-0.7981014005205337,-0.3177927340291919,0.6980050603227408,0.7962753878617248,13.277656555175781,5.813068866729736,2.6828908872289503e-08,-16.705362381168058,39.150543304302424,43.925064227881016,0.9920169115066528,0.11546158790588379,0.0503668338060379,-0.005862233228981495
0.0395,16.002096445533045,10.23892918291135,-0.6486565655512152,-0.31773706345044483,0.6978066450228858,0.7965545025414871,13.413361549377441,5.8747382164001465,3.347268773268297e-08,-16.701420094881268,39.134762429470236,43.907428896542484,0.9918522238731384,0.1166331022977829,0.050893645733594894,-0.0059846448712050915
0.04,15.700284811452699,10.297511611970217,-0.4982606582207666,-0.31767277168231717,0.6976078787876914,0.7968382324227429,13.548276901245117,5.9360857009887695,-6.006321484619548e-08,-16.697000505983134,39.11893245590712,43.88948436403331,0.9916868209838867,0.11779753118753433,0.051417477428913116,-0.006107626017183065
0.0405,15.39795624082507,10.356637054293623,-0.34695071158419827,-0.3175997017080567,0.697408800362726,0.7971264463652987,13.682401657104492,5.997109889984131,1.0249004978035714e-09,-16.69209695112837,39.10306067861024,43.871234284085325,0.9915207028388977,0.11895488947629929,0.05193832516670227,-0.006231153383851051
0.041,15.095188563345724,10.416279130154757,-0.1947641036241201,-0.3175177021195564,0.6972094469500176,0.7974190058070852,13.815743446350098,6.0578107833862305,2.0477251894135406e-08,-16.686703146621298,39.0871544668804,43.85268261245421,0.9913540482521057,0.12010521441698074,0.05245617777109146,-0.006355206947773695
0.0415,14.792058371229935,10.476410672435675,-0.04173854122253559,-0.3174266272703483,0.6970098541817848,0.7977157648725554,13.948298454284668,6.118183612823486,-5.317233231494356e-08,-16.680813194508346,39.071221257657555,43.83383360433429,0.9911866784095764,0.12124849110841751,0.0529710091650486,-0.006479763425886631
0.042,14.48864098126966,10.537003754101928,0.1120879564380616,-0.31732633742284433,0.6968100560958688,0.7980165704926706,14.080069541931152,6.178228378295898,-1.1939857103016038e-08,-16.674421588190995,39.0552685487134,43.81469181130559,0.9910186529159546,0.12238476425409317,0.053482819348573685,-0.006604802329093218
0.0425,14.185010398273354,10.5980297171033,0.2666770750320767,-0.3172166988896071,0.6966100851128569,0.7983212625362154,14.211064338684082,6.237944602966309,-2.085744910118592e-08,-16.66752321755286,39.039303891714034,43.795262077819416,0.9908500909805298,0.12351406365633011,0.053991593420505524,-0.006730303168296814
0.043000000000000003,13.881239279904547,10.659459202645518,0.4219902227934091,-0.31709758416844125,0.6964099720149092,0.7986296739521792,14.341282844543457,6.297330856323242,7.515561506465929e-09,-16.66011337359508,39.02333488516634,43.775549537229914,0.9906810522079468,0.12463641911745071,0.05449732765555382,-0.006856244523078203
0.043500000000000004,13.577398902933728,10.721262182775279,0.5779885487489345,-0.31696887207109364,0.6962097459262785,0.7989416309229207,14.470725059509277,6.356383323669434,2.5486224686233072e-08,-16.652187752574942,39.00736916726156,43.75555960737908,0.9905113577842712,0.1257518231868744,0.05499999597668648,-0.006982604973018169
0.044,13.273559130916285,10.78340799321854,0.7346329614675121,-0.31683044784537095,0.6960094342955336,0.7992569530278087,14.599396705627441,6.415101528167725,2.9646075816458506e-08,-16.64374245964374,38.99141440862979,43.735297985744836,0.9903412461280823,0.1268603354692459,0.055499594658613205,-0.007109364494681358
0.0445,12.969788383307526,10.845865367409775,0.8918841483081488,-0.3166822032904798,0.6958090628794664,0.799575453417031,14.727298736572266,6.473484516143799,3.3534959698044986e-08,-16.63477401198052,38.975478305018676,43.714770644160545,0.9901706576347351,0.12796196341514587,0.055996108800172806,-0.007236501667648554
0.045,12.666153606024423,10.908602471647603,1.049702595149921,-0.3165240368654053,0.6956086557286923,0.7998969389952285,14.85443115234375,6.531527519226074,-1.0796047433814238e-07,-16.625279341419034,38.959568569910225,43.693983823117186,0.989999532699585,0.12905672192573547,0.05648951232433319,-0.007363995537161827
0.0455,12.362720243462032,10.97158694131048,1.2080486065852847,-0.31635585379015824,0.6954082351749263,0.8002212106146216,14.980803489685059,6.589232921600342,-4.523234764519657e-08,-16.61525579656631,38.94369292708876,43.67294402565802,0.9898280501365662,0.1301446557044983,0.056979816406965256,-0.0074918256141245365
0.046,12.059552211970788,11.034785918064058,1.366882326557418,-0.31617756613971776,0.6952078218199336,0.8005480632772566,15.106413841247559,6.646597385406494,1.8016102387719002e-08,-16.604701144411834,38.92785910317379,43.65165801087804,0.9896561503410339,0.1312257945537567,0.05746699869632721,-0.007619972340762615
0.0465,11.756711874799851,11.098166087990224,1.5261637594212871,-0.3159890929305198,0.6950074345261443,0.8008772863460107,15.231269836425781,6.703620910644531,-6.377027972348515e-08,-16.5936135714272,38.91207482013085,43.630132787039855,0.9894839525222778,0.13230016827583313,0.057951051741838455,-0.007748417090624571
0.047,11.454260018509604,11.161693720566292,1.6858527914072123,-0.31579036019933565,0.6948070904089158,0.8012086637639642,15.355367660522461,6.760298252105713,3.26563771579913e-08,-16.581991684156847,38.89634778777321,43.608375604318645,0.9893113374710083,0.13336777687072754,0.058431949466466904,-0.007877134718000889
0.0475,11.152255830855323,11.225334708421494,1.8459092124647758,-0.3155813010744107,0.6946068048304428,0.8015419742817532,15.478713989257812,6.816629409790039,5.54616512715711e-08,-16.569834509301387,38.880685696267676,43.586393947189606,0.9891383051872253,0.13442866504192352,0.058909691870212555,-0.008006110787391663
0.048,10.850756880142411,11.289054607796526,2.0062927384640763,-0.31536185583873005,0.6944065913952893,0.8018769916924907,15.601305961608887,6.872613430023193,-1.0566758135155396e-07,-16.55714149329563,38.86509620865672,43.56419552647147,0.9889650344848633,0.13548283278942108,0.05938426032662392,-0.00813532155007124
0.0485,10.54981909605231,11.352818679631097,2.166963033730414,-0.3151319719852943,0.6942064619475352,0.8022134850738503,15.723153114318848,6.928247451782227,3.985855556720708e-08,-16.54391250138424,38.84958695340942,43.5417882710401,0.9887914061546326,0.13653035461902618,0.05985564738512039,-0.008264748379588127
0.049,10.249496751936716,11.416591931203442,2.327879733887801,-0.31489160426430357,0.6940064265695269,0.802551219036886,15.844260215759277,6.9835333824157715,-5.446958439847549e-08,-16.530147816198863,38.83416551701358,43.51918031922731,0.9886176586151123,0.13757124543190002,0.060323845595121384,-0.008394374512135983
0.0495,9.94984244857641,11.480339158245018,2.489002468985713,-0.3146407147221493,0.693806493582203,0.8028899539811637,15.96462345123291,7.038464069366455,1.0592717103463656e-07,-16.515848135840937,38.8188394366202,43.49638000991927,0.9884434938430786,0.1386055201292038,0.0607888326048851,-0.00852417666465044
0.05,9.650907099399811,11.544024987452978,2.650290886882969,-0.31437927273213306,0.6936066695469922,0.8032294463557688,16.08425521850586,7.093042850494385,6.413704056740244e-08,-16.50101457147553,38.803616192752315,43.47339587337043,0.9882692694664001,0.13963323831558228,0.061250604689121246,-0.008654139004647732
0.0505,9.352739917154926,11.607613919322725,2.811704676861722,-0.31410725501684056,0.6934069592692524,0.8035694489257464,16.20314598083496,7.147264003753662,-9.468293926673255e-10,-16.485648644441895,38.78850320208878,43.4502366217484,0.988094687461853,0.14065439999103546,0.06170913949608803,-0.008784241043031216
0.051000000000000004,9.055388402027338,11.671070371222346,2.9732035934440244,-0.31382464566210955,0.6932073658032435,0.8039097110435359,16.321313858032227,7.201130390167236,3.3973456936564617e-08,-16.469752282887367,38.77350781033417,43.426911139426046,0.9879200458526611,0.14166906476020813,0.06216444820165634,-0.008914465084671974
0.051500000000000004,8.7588983311955,11.734358720630711,3.134747480382677,-0.31353143612254375,0.6930078904586062,0.8042499789249499,16.438753128051758,7.254638195037842,6.202584046377524e-08,-16.453327817931577,38.75863728518466,43.403428473036776,0.9877452254295349,0.14267726242542267,0.0626165047287941,-0.009044792503118515
0.052000000000000005,8.463313749813588,11.797443348461108,3.2962962947975587,-0.3132276252185382,0.6928085328083331,0.8045899959292377,16.555471420288086,7.307785511016846,7.619243902468043e-09,-16.436377979369023,38.74389880940044,43.3797978213102,0.9875702857971191,0.14367900788784027,0.0630652979016304,-0.009175204671919346
0.0525,8.168676963411047,11.86028868239224,3.4578101314279834,-0.3129132191247933,0.6926092906982017,0.8049295028427993,16.671466827392578,7.360570907592773,-8.043112131872476e-08,-16.418905890918285,38.72929947399332,43.35602852470406,0.987395167350769,0.14467434585094452,0.06351082026958466,-0.009305683895945549
0.053,7.875028531696807,11.922859240129073,3.619249246971252,-0.3125882313503054,0.6924101602576603,0.8052682381660764,16.786746978759766,7.412995338439941,-1.3498333828465547e-07,-16.400915065026794,38.714846271539564,43.33213005485017,0.9872199892997742,0.1456632912158966,0.06395306438207626,-0.009436209686100483
0.0535,7.582407263755173,11.985119672516099,3.7805740844769433,-0.3122526827098391,0.6922111359121348,0.805605938403181,16.90131378173828,7.465053081512451,-2.0640924525139326e-09,-16.38240939724097,38.70054608962589,43.30811200383087,0.9870446920394897,0.1466459035873413,0.06439201533794403,-0.009566765278577805
0.054,7.290850214619495,12.047034806426659,3.941745297766216,-0.31190660128689635,0.6920122103967346,0.8059423383538039,17.01517105102539,7.516745567321777,2.0883648588210235e-08,-16.36339316015164,38.6864057044371,43.28398407330326,0.9868693351745605,0.14762219786643982,0.06482767313718796,-0.00969733577221632
0.0545,7.00039268320854,12.108569687352356,4.102723775844923,-0.3115500223882101,0.6918133747713426,0.8062771714069478,17.128324508666992,7.56807279586792,1.2266188775811315e-07,-16.343870996925485,38.672431774493425,43.259756063488695,0.9866939187049866,0.14859221875667572,0.06526002287864685,-0.009827901609241962
0.055,6.71106821160979,12.169689621617781,4.263470667279116,-0.311182988489806,0.6916146184370539,0.8066101698360478,17.240779876708984,7.619032859802246,-3.1054963045562545e-08,-16.323847914433596,38.65863083454411,43.23543786204419,0.9865186214447021,0.1495560109615326,0.06568906456232071,-0.009958447888493538
0.0555,6.422908585692874,12.230360218146748,4.423947404501191,-0.3108055491746891,0.6914159291539447,0.8069410650950245,17.35253143310547,7.669621467590332,8.372892779107133e-08,-16.3033292759889,38.64500928962475,43.21103943283347,0.9863431453704834,0.15051358938217163,0.06611476838588715,-0.010088954120874405
0.056,6.135943837035456,12.290547429707454,4.584115728014776,-0.3104177610622214,0.691217293060148,0.8072695881148308,17.463590621948242,7.719838619232178,-5.119925106100709e-08,-16.282320793704372,38.631573409284535,43.186570804614625,0.9861677289009094,0.15146498382091522,0.06653713434934616,-0.01021940354257822
0.0565,5.850202246143224,12.350217593565297,4.74393771046631,-0.3100196877292751,0.6910186946922061,0.8075954696000675,17.573957443237305,7.769684791564941,3.747297583345244e-08,-16.26082852048456,38.61832932198887,43.16204205966122,0.9859923124313354,0.15241025388240814,0.06695616245269775,-0.010349782183766365
0.057,5.565710346944745,12.409337471473698,4.903375780551166,-0.3096113996232567,0.6908201170066761,0.8079184403252222,17.68364143371582,7.81915807723999,-7.993801176553461e-09,-16.238858841663436,38.60528300970336,43.13746332233425,0.9858170747756958,0.15334942936897278,0.06737184524536133,-0.010480072349309921
0.0575,5.282492932541286,12.467874288934468,5.06239274672208,-0.30919297396710904,0.6906215414029626,0.8082382314301175,17.792638778686523,7.868255615234375,-7.8634606381911e-08,-16.21641846630168,38.59244030266394,43.11284474762169,0.9856417179107666,0.15428252518177032,0.06778416037559509,-0.010610257275402546
0.058,5.000573062191048,12.525795773661422,5.2209518206677785,-0.3087644946564169,0.6904229477473517,0.8085545747141571,17.90096092224121,7.916980266571045,1.5729937352659817e-09,-16.193514418157143,38.57980687433708,43.08819650966197,0.9854665994644165,0.15520961582660675,0.06819312274456024,-0.010740322060883045
0.0585,4.71997206950656,12.58307019318242,5.379016640529579,-0.30832605214874503,0.6902243143982137,0.808867202928943,18.008604049682617,7.965325832366943,-8.563719688936544e-08,-16.17015402634231,38.56738823657508,43.06352879026859,0.9852914214134216,0.15613068640232086,0.06859871000051498,-0.010870249941945076
0.059000000000000004,4.440709571843455,12.639666391517055,5.536551293824028,-0.3078777433453641,0.6900256182323566,0.8091758500688849,18.115583419799805,8.013298988342285,-1.4350835897403158e-07,-16.146344915683176,38.55518973496919,43.038851767471606,0.9851166009902954,0.15704584121704102,0.06900093704462051,-0.011000028811395168
0.059500000000000004,4.162803480858223,12.69555382486912,5.69352034003961,-0.3074196714655181,0.6898268346724916,0.8094802516593969,18.221887588500977,8.060890197753906,5.6329337638771904e-08,-16.12209499679384,38.54321654440396,43.01417560409231,0.9849416613578796,0.15795505046844482,0.06939976662397385,-0.011129637248814106
0.06,3.886270014212067,12.75070259627537,5.849888832876017,-0.3069519459134128,0.6896279377157905,0.8097801450423011,18.327531814575195,8.10810375213623,-4.954729604378372e-08,-16.097412455881926,38.531473664815685,42.98951043636703,0.9847670197486877,0.15885840356349945,0.06979522109031677,-0.011259066872298717
0.0605,3.6111237083974244,12.805083489153938,6.005622342094526,-0.30647468213810775,0.6894288999635028,0.810075269658068,18.432514190673828,8.154934883117676,-2.2985902958794213e-08,-16.072305744299566,38.51996591715698,42.964866362635554,0.9845923781394958,0.1597558856010437,0.0701872706413269,-0.011388296261429787
0.061,3.337377432663306,12.858667999698325,6.1606869749485,-0.30598800148650956,0.6892296926516018,0.8103653673245357,18.536846160888672,8.201386451721191,3.151444971649653e-08,-16.046783567855286,38.508697939569174,42.940253432109216,0.9844180345535278,0.16064758598804474,0.07057593017816544,-0.011517315171658993
0.0615,3.065042404015156,12.911428368065211,6.315049397163419,-0.3054920310496809,0.6890302856824326,0.8106501825117489,18.640520095825195,8.247456550598145,5.8669474611861006e-08,-16.02085487590242,38.49767418376438,42.9156816337339,0.9842437505722046,0.16153350472450256,0.07096119225025177,-0.011646108701825142
0.062,2.794128203264454,12.96333760830674,6.468676853436283,-0.30498690350268226,0.6888306476573322,0.8109294626125866,18.74355697631836,8.2931489944458,-3.298304207532965e-08,-15.994528850219346,38.486898911617814,42.891160885162414,0.9840698838233948,0.16241373121738434,0.0713430717587471,-0.011774666607379913
0.0625,2.5246427921029637,13.014369537000329,6.621537187424702,-0.30447275693818415,0.688630745910186,0.8112029582088487,18.84593963623047,8.338452339172363,1.3980249846667903e-08,-15.967814893697575,38.476376191971,42.866701021850396,0.9838959574699402,0.16328822076320648,0.07172152400016785,-0.011902965605258942
0.063,2.2565925311761146,13.064498800532103,6.773598861196633,-0.3039497346940929,0.6884305465419016,0.811470423332485,18.947689056396484,8.38337516784668,2.4391876962681636e-08,-15.940722618853465,38.466109897646554,42.842311786289805,0.9837223887443542,0.16415707767009735,0.0720965787768364,-0.012030999176204205
0.0635,1.9899821991297537,13.113700900992002,6.924830974112355,-0.3034179851754469,0.6882300144557519,0.8117316157216691,19.048805236816406,8.427916526794434,-5.8531629321123546e-08,-15.91326183617969,38.45610370267362,42.81800281739317,0.983549177646637,0.16502033174037933,0.07246823608875275,-0.012158754281699657
0.064,1.724815012604201,13.161952220642098,7.0752032811107615,-0.30287766167084845,0.6880291133935732,0.8119862970714227,19.14928436279297,8.472071647644043,9.96122508922781e-08,-15.885442542352456,38.446361079724255,42.79378364004212,0.9833759665489197,0.16587798297405243,0.07283647358417511,-0.012286213226616383
0.0645,1.4610926471493155,13.209230044921831,7.224686210373064,-0.30232892216370677,0.6878278059727708,0.8122342332785205,19.2491455078125,8.51584243774414,1.0264859184871966e-07,-15.857274908310655,38.43688529775913,42.76966365481206,0.9832032322883606,0.166730135679245,0.07320130616426468,-0.012413367629051208
0.065,1.1988152590340537,13.255512583957113,7.37325088033757,-0.3017719291385788,0.6876260537241099,0.812475194680406,19.348379135131836,8.55922794342041,-1.0663151250867031e-08,-15.82876926722325,38.427679419882054,42.74565212788605,0.9830306768417358,0.16757677495479584,0.07356271892786026,-0.012540201656520367
0.0655,0.937981507923794,13.300778992542762,7.520869116040032,-0.30120684938290054,0.6874238171302509,0.8127089562878749,19.446992874145508,8.602230072021484,1.8294358028470015e-07,-15.799936102361011,38.41874630140129,42.72175818116887,0.982858419418335,0.16841794550418854,0.07392073422670364,-0.012666704133152962
0.066,0.6785885803985289,13.345009388570833,7.667513464755155,-0.30063385378441326,0.6872210556649998,0.81293529801129,19.544994354248047,8.644845962524414,-1.0602493460964979e-07,-15.770786034889005,38.41008858809606,42.69799078261289,0.9826865196228027,0.16925369203090668,0.07427533715963364,-0.012792864814400673
0.0665,0.42063221428488684,13.388184869880199,7.813157210915406,-0.30005311712459554,0.6870177278332348,0.8131540048801028,19.642383575439453,8.687076568603516,-1.3589905201172314e-08,-15.74132981159601,38.401708714686016,42.67435873676647,0.9825148582458496,0.17008404433727264,0.07462652772665024,-0.012918666936457157
0.067,0.1641067237747858,13.430287529505758,7.9577743902847935,-0.29946481786841816,0.6868137912114777,0.8133648672554785,19.739166259765625,8.728921890258789,-7.682814939791172e-10,-15.711578292577073,38.39360890350155,42.65087067555514,0.9823434948921204,0.1709090620279312,0.07497431337833405,-0.013044103048741817
0.0675,-0.09099497469655964,13.47130046930835,8.101339803365669,-0.2988691379507491,0.6866092024890684,0.81356768103583,19.835350036621094,8.77038288116455,-7.459131978748701e-08,-15.681542438885524,38.38579116335171,42.62753504930527,0.9821726083755493,0.17172877490520477,0.07531870901584625,-0.013169161975383759
0.068,-0.3446813358406628,13.51120781196982,8.24382902801824,-0.2982662625597406,0.6864039175099131,0.8137622478550791,19.93092918395996,8.811457633972168,1.5006396836270142e-07,-15.65123330017046,38.378257288587555,42.60436011801977,0.9820019006729126,0.17254319787025452,0.07565969973802567,-0.013293828815221786
0.0685,-0.5969621582012511,13.549994711340098,8.38521843127327,-0.297656379917535,0.6861978913147602,0.8139483752734867,20.02591896057129,8.852148056030273,6.066883884159324e-08,-15.620662002315896,38.37100885835696,42.581353942914234,0.9818316698074341,0.1733524054288864,0.07599730044603348,-0.013418098911643028
0.069,-0.8478485561627057,13.58764736112658,8.525485180319713,-0.29703968105863476,0.6859910781839746,0.8141258769608917,20.120315551757812,8.892452239990234,5.786132817320322e-08,-15.589839735097463,38.36404723604841,42.55852437822229,0.9816616773605347,0.17415639758110046,0.0763314962387085,-0.013541954569518566
0.0695,-1.0973529313090002,13.624153001918794,8.66460725265019,-0.2964163596062813,0.6857834316807625,0.8142945728722307,20.21413230895996,8.932374000549316,4.5042590102184477e-08,-15.558777739872628,38.35737356891918,42.5358790632773,0.9814921617507935,0.17495526373386383,0.07666231691837311,-0.013665392063558102
0.07,-1.3454889431607218,13.659499926544086,8.802563445348637,-0.29578661154720154,0.6855749046948142,0.8144542894152066,20.307363510131836,8.971909523010254,2.9429292780491778e-08,-15.527487297320338,38.350988787905166,42.51342541487838,0.9813230037689209,0.1757490038871765,0.07698974758386612,-0.013788397423923016
0.07050000000000001,-1.592271479317838,13.69367748375338,8.939333383505407,-0.2951506350050694,0.6853654494863208,0.8146048596100114,20.4000186920166,9.011061668395996,-1.463003371782179e-07,-15.495979715245399,38.34489360760726,42.49117061994657,0.9811542630195618,0.1765376627445221,0.07731380313634872,-0.013910961337387562
0.07100000000000001,-1.8377166250358687,13.726676080238501,9.07489752774685,-0.2945086300130483,0.6851550177303265,0.8147461232409896,20.49209213256836,9.049827575683594,-4.328352787297263e-08,-15.46426631646346,38.339088526451285,42.46912162847829,0.9809857606887817,0.17732125520706177,0.07763448357582092,-0.014033072628080845
0.07150000000000001,-2.0818416322631554,13.758487180985686,9.209237180867506,-0.2938607982857715,0.6849435605613706,0.8148779270001759,20.58360481262207,9.088212966918945,-8.392543549007314e-08,-15.43235842678184,38.33357382701622,42.44728514680093,0.9808178544044495,0.1780998706817627,0.07795180380344391,-0.014154724776744843
0.07200000000000001,-2.3246648881668524,13.78910330797252,9.342334493554358,-0.29320734299112433,0.6847310286183832,0.8150001246226288,20.6745548248291,9.126215934753418,-5.642842637598733e-08,-15.400267363091285,38.328349576526996,42.42566763113636,0.9806503057479858,0.17887352406978607,0.07826576381921768,-0.014275907538831234
0.0725,-2.566205883175308,13.818518037218496,9.474172469194269,-0.2925484685221886,0.6845173720897857,0.8151125770135107,20.764938354492188,9.163836479187012,-1.1544997846613114e-07,-15.368004421583684,38.32341562750687,42.404275281476565,0.9804832339286804,0.17964224517345428,0.07857637107372284,-0.014396611601114273
0.073,-2.8064851785643916,13.846725994201947,9.604734967756917,-0.2918843802697171,0.6843025407587564,0.8152151523668687,20.854766845703125,9.201074600219727,-1.9063506329075608e-08,-15.335580866110663,38.31877161858485,42.383114035775684,0.9803165197372437,0.18040607869625092,0.07888363301753998,-0.014516828581690788
0.0735,-3.0455243736153226,13.873722847658936,9.734006708747001,-0.2912152843954988,0.6840864840486156,0.8153077262760858,20.944034576416016,9.237930297851562,5.5644228780238336e-08,-15.303007916697544,38.31441697545361,42.362189564462255,0.9801501631736755,0.18116500973701477,0.0791875571012497,-0.014636547304689884
0.074,-3.283346072371519,13.899505301782188,9.861973273221322,-0.29054138760697473,0.6838691510682824,0.815390181835987,21.032758712768555,9.274407386779785,-3.1701148373031174e-08,-15.270296738226968,38.31035091197252,42.341507265274274,0.9799843430519104,0.1819191575050354,0.07948815822601318,-0.014755764976143837
0.0745,-3.5199738500218385,13.924071086840865,9.98862110486715,-0.28986289693346823,0.683650490657765,0.815462409736591,21.120935440063477,9.310505867004395,-3.7135478692107426e-08,-15.237458429306452,38.30657243141154,42.321072258420294,0.9798189997673035,0.1826685220003128,0.07978544384241104,-0.014874471351504326
0.075,-3.755432218937628,13.94741894824437,10.113937510140586,-0.2891800195043861,0.6834304514336291,0.8155243083485154,21.20857048034668,9.346226692199707,-2.958860001456287e-08,-15.204504011333736,38.30308032783037,42.300889382068206,0.97965407371521,0.18341313302516937,0.08007943630218506,-0.014992659911513329
0.0755,-3.9897465943907733,13.9695486340758,10.237910657464568,-0.2884929623297413,0.6832089818344049,0.815575783800051,21.295673370361328,9.381573677062988,4.289486099651185e-08,-15.171444417773309,38.29987318758826,42.28096318816349,0.9794897437095642,0.18415305018424988,0.08037013560533524,-0.015110322274267673
0.076,-4.222943259979988,13.990460881123331,10.360529575487865,-0.28780193208335375,0.6829860301658811,0.8156167500459334,21.38223648071289,9.416540145874023,-1.2173371999324445e-07,-15.138290483657782,38.29694939097911,42.26129793857818,0.9793257713317871,0.18488827347755432,0.08065754175186157,-0.01522745005786419
0.0765,-4.455049332792356,14.010157399439779,10.481784150408231,-0.2871071348890705,0.68276154464624,0.8156471289278471,21.4682674407959,9.451133728027344,6.855858458720832e-08,-15.105052935326917,38.294307113986996,42.241897601591134,0.9791622757911682,0.18561884760856628,0.08094168454408646,-0.015344036743044853
0.077,-4.6860927283272495,14.028640855463161,10.601665122363848,-0.2864087761103474,0.6825354734509833,0.8156668502267151,21.553770065307617,9.485352516174316,1.1495718865717208e-07,-15.071742380417074,38.29194433015676,42.22276584869977,0.9789992570877075,0.18634481728076935,0.08122256398200989,-0.015460075810551643
0.0775,-4.916102125209408,14.04591485373308,10.720164080899503,-0.28570706014352704,0.6823077647576012,0.8156758517068284,21.638757705688477,9.51919937133789,6.411741537704074e-08,-15.03836929811356,38.28985881257463,42.20390605176312,0.9788367748260498,0.1870662271976471,0.08150019496679306,-0.015575562603771687
0.078,-5.1451069297181125,14.061983917239791,10.837273459514583,-0.28500219021514156,0.6820783667899356,0.8156740791518818,21.723222732543945,9.5526762008667,-1.530238051827837e-07,-15.0049440296779,38.28804813595387,42.185321280475605,0.9786748290061951,0.18778309226036072,0.08177459985017776,-0.01569049060344696
0.0785,-5.373137240159103,14.076853466445062,10.952986529302388,-0.28429436818356046,0.6818472278621845,0.8156614863929963,21.80716896057129,9.58578109741211,-1.7971755994494742e-07,-14.971476769261809,38.28650967882001,42.167014300170145,0.9785133004188538,0.1884954273700714,0.082045778632164,-0.015804849565029144
0.079,-5.600223811105898,14.090529797015604,11.067297391691193,-0.28358379434529546,0.6816142964225029,0.8156380353288073,21.890602111816406,9.618515968322754,-7.834420046037849e-08,-14.937977555019097,38.28524062579099,42.148987569949504,0.9783522486686707,0.18920329213142395,0.08231374621391296,-0.015918634831905365
0.0795,-5.82639801753705,14.103020056311793,11.18020097029923,-0.28287066724627036,0.6813795210961408,0.8156036959377191,21.973529815673828,9.650887489318848,8.681652730047063e-08,-14.90445626052675,38.28423796994651,42.13124324114333,0.9781918525695801,0.1899067461490631,0.08257853239774704,-0.016031844541430473
0.08,-6.0516918188956845,14.114332218676223,11.291693001917329,-0.28215518349834673,0.68114285072808,0.8155584462824151,22.05594825744629,9.682890892028809,4.014386334461051e-08,-14.870922586525502,38.283498515282474,42.11378315608938,0.9780318140983582,0.1906057596206665,0.08284013718366623,-0.016144471243023872
0.0805,-6.276137723097665,14.124475059568107,11.401770026634319,-0.281437537601395,0.6809042344251056,0.815502272506741,22.13787269592285,9.714531898498535,-1.8778688115617115e-07,-14.837386052990354,38.28301887924459,42.09660884723549,0.9778724908828735,0.1913004368543625,0.08309858292341232,-0.016256513074040413
0.081,-6.499768750514576,14.133458128591398,11.510429377121916,-0.28071792177118515,0.6806636215972713,0.815435168825071,22.21929359436035,9.745808601379395,2.0107374609779072e-07,-14.803855991540683,38.28279549533678,42.07972153655961,0.9777135252952576,0.19199074804782867,0.08335387706756592,-0.0163679551333189
0.0815,-6.722618397957549,14.141291721465562,11.61766916709714,-0.27999652577335965,0.6804209619987032,0.815357137504277,22.30022621154785,9.776726722717285,1.7980411826101772e-07,-14.770341538199325,38.282824615799576,42.06312213530456,0.9775552153587341,0.19267678260803223,0.0836060494184494,-0.016478806734085083
0.082,-6.944720602687917,14.147986850989739,11.723488278981803,-0.2792735367637449,0.680176205767688,0.8152681888384292,22.380664825439453,9.807284355163574,-3.883958932249243e-09,-14.736851626509592,38.28310231435317,42.04681124402336,0.9773973822593689,0.19335851073265076,0.08385509997606277,-0.016589052975177765
0.0825,-7.166109706480442,14.153555217051949,11.8278863507801,-0.27854913913524054,0.6799293034660026,0.8151683411163586,22.460617065429688,9.837484359741211,1.665829074681824e-08,-14.703394981018638,38.283624489001156,42.03078915293162,0.9772401452064514,0.19403600692749023,0.08410105854272842,-0.016698693856596947
0.083,-7.3868204197649305,14.158009175736561,11.930863762196573,-0.27782351437151354,0.6796802061174287,0.8150576205822161,22.540082931518555,9.867327690124512,-2.512868491066911e-07,-14.669980111135102,38.28438686488993,42.01505584256231,0.9770833849906921,0.19470927119255066,0.08434392511844635,-0.01680772192776203
0.0835,-7.606887785871625,14.161361707584012,12.032421620018223,-0.2770968409077165,0.6794288652454017,0.8149360613891773,22.619068145751953,9.896819114685059,2.009725932339279e-07,-14.636615305368622,38.28538499721917,41.99961098471811,0.9769272208213806,0.195378378033638,0.08458374440670013,-0.01691613532602787
0.084,-7.8263471454059035,14.16362638505801,12.132561742785681,-0.27636929399842775,0.6791752329097474,0.8148037055464254,22.69757843017578,9.925958633422852,-1.9923155036849494e-07,-14.603308625958137,38.28661427419941,41.984453943716915,0.9767716526985168,0.19604332745075226,0.08482050895690918,-0.017023934051394463
0.0845,-8.045234100777572,14.16481733927632,12.23128664477967,-0.27564104559300373,0.6789192617424552,0.8146606028595774,22.77560806274414,9.954745292663574,1.1322930504320539e-07,-14.57006790389534,38.28806992005199,41.96958377792478,0.9766165018081665,0.19670411944389343,0.08505424857139587,-0.017131105065345764
0.085,-8.26358448090973,14.164949226061832,12.328599519350352,-0.2749122642185175,0.6786609049824358,0.8145068108646928,22.853172302246094,9.983184814453125,-1.9016153984807715e-08,-14.53690073434949,38.28974699804737,41.954999241571116,0.9764620065689087,0.1973608434200287,0.08528497815132141,-0.017237655818462372
0.0855,-8.481434306152375,14.164037191371547,12.424504221618092,-0.27418311487044206,0.6784001165092227,0.8143423947560273,22.93027114868164,10.01127815246582,8.578823695870597e-08,-14.503814472498721,38.29164041357804,41.94069878684074,0.9763081073760986,0.1980135142803192,0.08551272004842758,-0.01734357513487339
0.08600000000000001,-8.69881975342541,14.162096836161638,12.51900525057546,-0.27345375891122126,0.6781368508755602,0.8141674273076915,23.00690269470215,10.03902816772461,6.441262456746699e-08,-14.470816229772794,38.293744917261435,41.92668056623628,0.9761547446250916,0.19866213202476501,0.08573748916387558,-0.01744886487722397
0.08650000000000001,-8.915777121615868,14.159144180747107,12.612107730621451,-0.27272435397686157,0.6778710633388381,0.8139819887893709,23.083070755004883,10.066435813903809,-5.72022536005079e-08,-14.437912870511727,38.29605510806975,41.91294243520543,0.9760019779205322,0.19930674135684967,0.0859593078494072,-0.01755351945757866
0.08700000000000001,-9.13234279725368,14.155195628715202,12.703817392559664,-0.2719950538916513,0.6776027098913231,0.8137861668762685,23.15877914428711,10.09350299835205,2.10881935913676e-07,-14.405111009043745,38.29856543648266,41.89948195502672,0.9758497476577759,0.19994737207889557,0.08617819100618362,-0.017657535150647163
0.08750000000000001,-9.348553220490535,14.150267930451795,12.794140554093637,-0.2712660085911125,0.6773317472891476,0.8135800565534449,23.23403549194336,10.120231628417969,4.690518196071025e-08,-14.37241700718593,38.301270207659414,41.8862963959472,0.9756981134414673,0.2005840390920639,0.08639416098594666,-0.01776091381907463
0.088,-9.56444485140572,14.14437814634042,12.883084099852903,-0.2705373640532578,0.6770581330800013,0.8133637600147081,23.3088321685791,10.146624565124512,-1.9203341139473196e-07,-14.339836972169826,38.304163584627034,41.87338274056545,0.9755470752716064,0.20121675729751587,0.08660724014043808,-0.017863648012280464
0.0885,-9.78005413666324,14.137543609693509,12.970655460984743,-0.2698092622382264,0.676781825629496,0.8131373865562239,23.383176803588867,10.17268180847168,2.0321924409927306e-07,-14.30737675499432,38.307239591481576,41.860737687453806,0.9753965735435486,0.20184557139873505,0.08681744337081909,-0.017965734004974365
0.089,-9.995417476543725,14.12978188947555,13.056862594347091,-0.2690818410363401,0.6765027841461511,0.8129010524650206,23.45707130432129,10.198408126831055,1.0600071931321509e-07,-14.275041949206644,38.31049211659891,41.84835765501211,0.9752466082572937,0.20247048139572144,0.08702479302883148,-0.018067175522446632
0.0895,-10.21057119237508,14.12111075287784,13.141713961339144,-0.2683552342246143,0.6762209687049682,0.8126548809025463,23.530527114868164,10.223806381225586,-1.4350381150052272e-07,-14.242837890112414,38.31391491585271,41.83623878554674,0.9750972986221313,0.203091561794281,0.08722931891679764,-0.018167970702052116
0.09,-10.425551494384933,14.111548127804271,13.22521850640651,-0.26762957143173705,0.6759363402695516,0.8123990017834524,23.60354232788086,10.248881340026855,1.278206411825522e-07,-14.210769654414575,38.31750161583656,41.82437694956761,0.9749487042427063,0.20370882749557495,0.08743105083703995,-0.01826811581850052
0.0905,-10.640394449998444,14.101112065327303,13.307385635258814,-0.26690497811151576,0.6756488607127383,0.8121335516497674,23.676115036010742,10.273626327514648,-1.5259836061431997e-07,-14.178842060280811,38.3212457170876,41.81276775029608,0.9748005867004395,0.20432226359844208,0.08762997388839722,-0.01836760900914669
0.091,-10.855135952604149,14.089820702173009,13.38822519283795,-0.26618157552476995,0.6753584928357045,0.8118586735406309,23.748247146606445,10.298049926757812,-6.461701396176522e-09,-14.147059667837818,38.32514059730958,41.80140652837658,0.9746530652046204,0.20493191480636597,0.08782612532377243,-0.018466444686055183
0.0915,-11.069811690810612,14.077692223293601,13.467747441075575,-0.2654594807296368,0.6750652003855125,0.8115745168577554,23.819944381713867,10.322153091430664,-1.2795153736533393e-07,-14.115426780090766,38.3291795145927,41.79028836678471,0.974506139755249,0.2055377960205078,0.08801953494548798,-0.018564626574516296
0.092,-11.284457118216373,14.064744824585201,13.545963036479272,-0.26473880658023485,0.6747689480710721,0.8112812372267726,23.891210556030273,10.345937728881836,-2.779046042178379e-07,-14.083947444265208,38.333355610628836,41.779408095924744,0.9743598699569702,0.20613993704319,0.08821021765470505,-0.01866215094923973
0.0925,-11.499107423715305,14.050996675808166,13.62288300758654,-0.2640196617336175,0.6744697015774774,0.8109789963546421,23.96204376220703,10.369407653808594,-4.038281176121927e-08,-14.052625453568139,38.33766191391935,41.768760298908916,0.9742141366004944,0.20673836767673492,0.08839819580316544,-0.018759015947580338
0.093,-11.71379750235917,14.036465883766466,13.698518732326768,-0.2633021506649308,0.6741674275787045,0.8106679618832765,24.032453536987305,10.392563819885254,5.971201488819133e-08,-14.021464349364273,38.34209134297478,41.75833931701143,0.9740690588951111,0.20733310282230377,0.08858349174261093,-0.018855223432183266
0.0935,-11.92856192679909,14.021170455801865,13.77288191533094,-0.2625863736906701,0.67386209374863,0.8103483072395448,24.102436065673828,10.415409088134766,-3.298150375030673e-07,-13.990467423762874,38.34663670950415,41.74813925528968,0.9739245772361755,0.20792417228221893,0.08876612782478333,-0.018950775265693665
0.094,-12.143434919327,14.005128263657763,13.84598456522926,-0.26187242699992147,0.6735536687703677,0.8100202114818216,24.1719970703125,10.437945365905762,5.974018169041528e-09,-13.9596377226098,38.35129072159315,41.73815398836561,0.9737806916236877,0.2085115909576416,0.08894611895084381,-0.01904566027224064
0.0945,-12.358450324538172,13.988357007766629,13.917838971977003,-0.2611604026934478,0.6732421223438786,0.8096838591432324,24.24113655090332,10.460179328918457,1.3122728148573515e-07,-13.928978048878799,38.356045986869546,41.728377166359515,0.9736375212669373,0.20909537374973297,0.08912351727485657,-0.019139889627695084
0.095,-12.573641582635123,13.970874182013999,13.988457684248615,-0.26045038883047067,0.6729274251918604,0.8093394400717564,24.309856414794922,10.482105255126953,-7.258680767563419e-08,-13.898490966455174,38.36089501565539,41.718802220969415,0.9734948873519897,0.20967553555965424,0.0892983004450798,-0.019233454018831253
0.0955,-12.789041703393353,13.952697039030712,14.05785348694034,-0.25974246948298263,0.6726095490638841,0.8089871492673469,24.378154754638672,10.503730773925781,7.782391975297287e-08,-13.868178804304673,38.365830224104656,41.70942237168813,0.97335284948349,0.2102520912885666,0.0894705057144165,-0.019326353445649147
0.096,-13.00468324080835,13.933842556064125,14.126039378821147,-0.2590367247974052,0.6722884667387719,0.8086271867162095,24.4460391998291,10.525055885314941,1.0177048892501261e-07,-13.838043661019366,38.37084393732633,41.70023063215143,0.973211407661438,0.21082507073879242,0.08964016288518906,-0.019418589770793915
0.0965,-13.22059826844348,13.914327401477628,14.193028550371906,-0.2583332310633955,0.6719641520252111,0.808259757222408,24.513511657714844,10.5460844039917,-1.8834235504527896e-07,-13.808087409731641,38.37592839249214,41.69121981660949,0.9730706214904785,0.21139448881149292,0.08980728685855865,-0.019510162994265556
0.097,-13.436818355497552,13.894167901926519,14.258834361851932,-0.25763206078959106,0.6716365797605832,0.8078850702369285,24.580570220947266,10.566819190979004,-6.453397816130746e-08,-13.778311703387178,38.3810757419288,41.68238254651465,0.9729304313659668,0.21196036040782928,0.08997190743684769,-0.019601071253418922
0.0975,-13.65337454361054,13.873380010257074,14.323470321632264,-0.2569332827860643,0.671305725808023,0.8075033396843688,24.6472225189209,10.58726692199707,2.283926363588762e-07,-13.748717980366342,38.38627805619475,41.67371125721845,0.9727910161018372,0.2125227153301239,0.09013406187295914,-0.019691314548254013
0.098,-13.870297324425545,13.851979274174033,14.386950064833867,-0.25623696225324916,0.6709715670516883,0.8071147837873808,24.713464736938477,10.607419967651367,2.3883810484903734e-08,-13.719307470443713,38.391527327141695,41.66519820477054,0.9726520776748657,0.21308155357837677,0.09029372781515121,-0.019780894741415977
0.0985,-14.087616617924485,13.829980805720426,14.4492873323091,-0.25554316087708306,0.6706340813902565,0.8067196248890254,24.779306411743164,10.627289772033691,-3.2989697729135514e-07,-13.690081201073824,38.39681547096084,41.65683547281264,0.9725139141082764,0.21363690495491028,0.09045097231864929,-0.019869811832904816
0.099,-14.305361751554553,13.80739925161211,14.510495950003586,-0.25485193693010433,0.6702932477286414,0.8063180892731674,24.844736099243164,10.646872520446777,-2.4145929700125635e-09,-13.661040003991584,38.402134331214725,41.648614979560506,0.9723762273788452,0.21418876945972443,0.09060578793287277,-0.01995805837213993
0.0995,-14.523561440161915,13.78424876446761,14.570589808735393,-0.2541633453782201,0.6699490459679479,0.8059104069830613,24.909770965576172,10.66617488861084,8.18115779566142e-08,-13.632184522114217,38.407475681855104,41.64052848486698,0.9722393155097961,0.2147371917963028,0.09075821936130524,-0.020045645534992218
0.1,-14.742243766748738,13.760542974972648,14.629582844427285,-0.25347743799285877,0.6696014569936679,0.8054968116382611,24.974395751953125,10.685194969177246,-2.5477410758867336e-07,-13.603515216731664,38.412831230227596,41.632567597358936,0.97210294008255,0.215282142162323,0.09090825170278549,-0.02013256400823593
0.1005,-14.961436164068639,13.736294965016526,14.687489018827424,-0.25279426346820527,0.6692504626621365,0.8050775402499902,25.038619995117188,10.703937530517578,-1.0880670942015058e-07,-13.575032374971471,38.41819262006425,41.62472378164192,0.9719671607017517,0.21582365036010742,0.09105593711137772,-0.02021881565451622
0.101,-15.181165397075766,13.711517241836304,14.744322300752483,-0.25211386754320725,0.668896045785263,0.8046528330351023,25.10245132446289,10.722408294677734,5.893265253575919e-08,-13.546736117523748,38.42355143446511,41.61698836556513,0.9718321561813354,0.21636174619197845,0.0912013053894043,-0.020304404199123383
0.1015,-15.401457546241291,13.686221713202704,14.800096647886607,-0.2514362931280291,0.6685381901135605,0.8042229332287729,25.16588592529297,10.740606307983398,4.29117790190503e-08,-13.518626406610876,38.428899198869985,41.60935254754046,0.9716978073120117,0.2168964445590973,0.09134436398744583,-0.02038932964205742
0.10200000000000001,-15.622337991751007,13.660419663679859,14.854825989168411,-0.2507615804346263,0.6681768803174912,0.8037880868960454,25.22892189025879,10.75853157043457,-1.5249814566686837e-07,-13.490703054186692,38.43422738402168,41.601807403908595,0.971563994884491,0.21742773056030273,0.09148511290550232,-0.02047358825802803
0.10250000000000001,-15.843831398596791,13.634121731989538,14.908524207797074,-0.2500897671110968,0.6678121019671635,0.8033485427423644,25.291563034057617,10.776190757751465,8.942087958985212e-08,-13.46296573034865,38.43952740892264,41.594343896346,0.9714308977127075,0.21795563399791718,0.09162361174821854,-0.020557181909680367
0.10300000000000001,-16.06596170257414,13.607337889508122,14.961205124887776,-0.24942088837946547,0.6674438415103993,0.8029045519232251,25.35380744934082,10.793583869934082,-2.552348554729633e-09,-13.435413971946572,38.444790643785915,41.5869528793057,0.9712984561920166,0.2184801697731018,0.09175986051559448,-0.020640112459659576
0.10350000000000001,-16.288752097196916,13.58007741992311,15.012882483804821,-0.24875497717654374,0.6670720862492168,0.8024563678530597,25.41566276550293,10.810712814331055,8.792209627017655e-08,-13.408047191370612,38.450008412983046,41.5796251074861,0.9711666107177734,0.21900132298469543,0.09189387410879135,-0.02072237618267536
0.10400000000000001,-16.5122250215403,13.55234890007383,15.06356993520022,-0.24809206429750752,0.6666968243147519,0.8020042460134923,25.477121353149414,10.8275785446167,-4.274697928963178e-08,-13.380864685501026,38.45517199798994,41.57235124332075,0.9710354208946228,0.21951912343502045,0.09202567487955093,-0.02080397494137287
0.1045,-16.736402149021572,13.52416018199903,15.113281022783696,-0.24743217854182342,0.6663180446406703,0.8015484437610818,25.538196563720703,10.844188690185547,6.919631800883508e-08,-13.353865644801559,38.46027264033332,41.565121864483196,0.9709049463272095,0.22003360092639923,0.09215530753135681,-0.020884910598397255
0.105,-16.961304377127988,13.49551837621226,15.162029169848863,-0.24677534686115413,0.6659357369351018,0.8010892201346776,25.5988826751709,10.860543251037598,-5.5077695293448414e-08,-13.327049162538088,38.46530154453914,41.557927471400355,0.9707751870155334,0.2205447554588318,0.09228277206420898,-0.02096518501639366
0.1055,-17.18695181809997,13.466429836223812,15.209827666578702,-0.24612159450886573,0.6655498916511485,0.800626835662506,25.659181594848633,10.876643180847168,1.0894206070588552e-07,-13.300414244103672,38.47024988108583,41.55075849476843,0.97064608335495,0.22105258703231812,0.09240809828042984,-0.021044796332716942
0.106,-17.4133637905774,13.436900144326007,15.256689658152121,-0.2454709451907605,0.6651604999560167,0.8001615521691119,25.719083786010742,10.892487525939941,-7.534347901128058e-08,-13.27395981643086,38.47510878936398,41.5436053030651,0.9705175161361694,0.22155705094337463,0.09253129363059998,-0.021123740822076797
0.1065,-17.640558812215083,13.406934098656802,15.30262813367183,-0.24482342121664968,0.6647675536988147,0.7996936325822722,25.778608322143555,10.908087730407715,-6.025214815963409e-08,-13.247684737471722,38.479869380644764,41.53645821005169,0.9703897833824158,0.2220582515001297,0.09265239536762238,-0.021202025935053825
0.107,-17.86855459327394,13.376535701554376,15.347655915931918,-0.24417904365238807,0.6643710453770872,0.7992233407399989,25.837738037109375,10.923434257507324,-1.0979559306178999e-07,-13.22158780572593,38.48452274106001,41.52930748225997,0.9702625274658203,0.22255612909793854,0.09277140349149704,-0.021279647946357727
0.1075,-18.09736803119206,13.345708149213689,15.391785652042074,-0.24353783247198188,0.6639709681021237,0.798750941197755,25.8964900970459,10.938539505004883,-6.444490452395257e-08,-13.195667769796804,38.4890599345951,41.52214334645653,0.9701361060142517,0.22305072844028473,0.09288836270570755,-0.02135660871863365
0.108,-18.3270152061402,13.314453822653666,15.435029804923838,-0.24289980670938918,0.6635673155631213,0.7982766990359937,25.95485496520996,10.95340347290039,4.308951062625965e-08,-13.169923337955177,38.493472006098266,41.514955997079966,0.9700103402137756,0.22354204952716827,0.0930032804608345,-0.02143291011452675
0.1085,-18.55751137756444,13.28277428000195,15.47740064569202,-0.2422649846096253,0.6631600819902463,0.7978008796681428,26.012836456298828,10.968025207519531,3.5244407392553967e-09,-13.144353187690541,38.49774998430774,41.50773560364409,0.9698852896690369,0.22403007745742798,0.09311617910861969,-0.02150854840874672
0.109,-18.78887098171821,13.25067025010209,15.518910246933372,-0.24163338377879778,0.6627492621166757,0.7973237486491503,26.0704345703125,10.982407569885254,-6.782600081578494e-08,-13.118955975229259,38.50188488489945,41.50047231810195,0.9697608947753906,0.22451482713222504,0.0932270735502243,-0.021583527326583862
0.1095,-19.021107630184748,13.218141627446018,15.55957047689213,-0.24100502133268126,0.6623348511396747,0.7968455714847053,26.127643585205078,10.996550559997559,-2.9685287472602795e-07,-13.09373034499871,38.50586771355754,41.49315628216447,0.9696370959281921,0.22499629855155945,0.09333596378564835,-0.02165784314274788
0.11,-19.254234109390225,13.185187468432812,15.599392994570543,-0.24037991404346687,0.6619168446807928,0.796366613441256,26.184476852416992,11.01046085357666,1.3645158958297543e-07,-13.068674939017198,38.50968946907011,41.485777634568514,0.9695140719413757,0.2254745215177536,0.09344290941953659,-0.021731499582529068
0.1105,-19.48826238110637,13.151805988952491,15.63838924575096,-0.23975807848430528,0.661495238745242,0.7958871393569332,26.240921020507812,11.024136543273926,1.1011699285745635e-07,-13.043788406188613,38.51334114645221,41.47832651828828,0.9693916440010071,0.2259494662284851,0.09354788810014725,-0.02180449478328228
0.111,-19.723203583941043,13.117994563291973,15.676570459943239,-0.23913953117127737,0.6610700296805357,0.7954074134535056,26.296987533569336,11.037585258483887,2.0364169017739187e-08,-13.019069411481114,38.51681374009832,41.47079308768451,0.9692699909210205,0.22642117738723755,0.09365095943212509,-0.021876836195588112
0.1115,-19.959068035813548,13.083749724358052,15.71394764826058,-0.23852428870243303,0.6606412141344691,0.7949276991494754,26.35267448425293,11.050804138183594,-4.76915822389401e-08,-12.99451664496948,38.52009824696647,41.463167515586285,0.9691490530967712,0.22688964009284973,0.09375212341547012,-0.021948518231511116
0.112,-20.195865237410704,13.049067165210483,15.750531602223981,-0.23791236789353928,0.6602087890125163,0.7944482588744344,26.407978057861328,11.063796997070312,-1.3993960124025762e-07,-12.970128830720398,38.523185669796035,41.455440000299554,0.9690288305282593,0.22735485434532166,0.09385138750076294,-0.022019540891051292
0.1125,-20.433603876618854,13.013941741896478,15.786332893494173,-0.2373037859101894,0.6597727514347282,0.7939693538847975,26.46290397644043,11.07656478881836,1.2628107981527137e-07,-12.945904735500429,38.5260670203609,41.44760077253719,0.9689093232154846,0.22781682014465332,0.09394878149032593,-0.022089902311563492
0.113,-20.672291833925367,12.978367477575757,15.821361874527897,-0.23669856039593298,0.6593330986922105,0.7934912440810301,26.517446517944336,11.089110374450684,1.0284828988460504e-08,-12.921843177286531,38.528733322759926,41.43964010226509,0.9687904715538025,0.22827553749084473,0.09404432028532028,-0.022159608080983162
0.1135,-20.91193618878278,12.942337567923722,15.855628680153128,-0.23609670959609447,0.6588898282032684,0.7930141878264837,26.571605682373047,11.101436614990234,1.7723104406286438e-07,-12.897943033559248,38.531175616746246,41.43154830545905,0.9686723351478577,0.22873100638389587,0.09413802623748779,-0.022228656336665154
0.114,-21.152543226926916,12.905844387798465,15.889143230056533,-0.23549825247695888,0.6584429374693048,0.7925384417679651,26.625383377075195,11.113542556762695,1.544340477721562e-07,-12.874203249358967,38.53338496109684,41.42331575076722,0.9685549139976501,0.22918324172496796,0.09422991424798965,-0.022297048941254616
0.1145,-21.39411844863995,12.8688794991554,15.921915232173998,-0.2349032088400075,0.6579924240305558,0.7920642606581457,26.678781509399414,11.125432968139648,1.6340828778993455e-07,-12.850622845085898,38.53535243702382,41.41493286607278,0.9684382677078247,0.22963222861289978,0.09431999921798706,-0.02236478216946125
0.115,-21.636666577947878,12.831433660191761,15.953954186973393,-0.2343115994309109,0.6575382854217514,0.7915918971799407,26.73180389404297,11.13710880279541,-9.254090116428415e-08,-12.827200924025204,38.53706915162819,41.40639014495192,0.9683223366737366,0.23007799685001373,0.0944083034992218,-0.022431863471865654
0.1155,-21.880191572740642,12.793496835701497,15.98526939261701,-0.23372344604297896,0.6570805191277929,0.7911216017729668,26.784440994262695,11.148571968078613,-3.175799889731934e-08,-12.803936679578438,38.53852624139752,41.397678153021914,0.9682071208953857,0.23052051663398743,0.09449484199285507,-0.02249828539788723
0.116,-22.124696635802653,12.755058208619323,16.015869950988677,-0.23313877161479893,0.6566191225395325,0.7906536224622018,26.836698532104492,11.159823417663574,9.885336282877688e-08,-12.780829402183743,38.53971487574776,41.38878753417447,0.9680926203727722,0.23095980286598206,0.09457962960004807,-0.022564051672816277
0.1165,-22.370184226740076,12.716106192731297,16.045764774569406,-0.2325576003217928,0.6561540929097517,0.790188204688964,26.888566970825195,11.17086410522461,-2.38638705241101e-07,-12.757878485907137,38.54062626061009,41.37970901668943,0.9679787755012512,0.23139582574367523,0.09466267377138138,-0.022629162296652794
0.117,-22.61665607478982,12.676628446527513,16.074962594142953,-0.23197995766144452,0.65568542730942,0.7897255911443254,26.940061569213867,11.1816987991333,-8.897232106619413e-08,-12.735083434688283,38.541251642062846,41.37043341922411,0.9678657054901123,0.23182862997055054,0.094744011759758,-0.02269361913204193
0.11750000000000001,-22.864113192494774,12.636611888171121,16.103471967311297,-0.23140587053196005,0.6552131225843315,0.7892660216050865,26.991172790527344,11.192328453063965,-1.5526271113230905e-07,-12.712443868224284,38.541582310008614,41.36095165667336,0.9677534103393555,0.23225820064544678,0.09482365101575851,-0.02275742031633854
0.11800000000000001,-23.112555890228048,12.596042711556324,16.131301287798156,-0.23083536730413728,0.6547371753122068,0.7888097327724223,27.041906356811523,11.202756881713867,2.7291950033259127e-08,-12.689959527476134,38.54160960189635,41.351254745895986,0.9676419496536255,0.23268455266952515,0.09490162134170532,-0.022820569574832916
0.11850000000000001,-23.36198379154833,12.554906403426713,16.15845879551679,-0.2302684778862398,0.654257581760351,0.7883569581133255,27.092254638671875,11.212981224060059,8.277051932736867e-09,-12.667630279782802,38.541324906487795,41.341333811302796,0.967531144618988,0.23310764133930206,0.09497790783643723,-0.022883063182234764
0.11900000000000001,-23.612395849367033,12.513187761523778,16.184952587377065,-0.2297052337816832,0.6537743378439596,0.7879079277049624,27.14221954345703,11.223004341125488,-1.3648852359438024e-07,-12.645456123568994,38.540719667667936,41.33118009030207,0.9674211144447327,0.23352748155593872,0.09505254030227661,-0.022944901138544083
0.11950000000000001,-23.863790362907263,12.470870913734112,16.21079062880453,-0.22914566813935572,0.6532874390851536,0.7874628680820637,27.19179916381836,11.232828140258789,1.4633262424013083e-07,-12.623437192633013,38.539785388297524,41.32078493859757,0.9673117995262146,0.23394407331943512,0.09512554109096527,-0.023006083443760872
0.12,-24.116164995432964,12.427939338202876,16.23598076594306,-0.22858981579641802,0.6527968805728437,0.7870220020874646,27.240995407104492,11.242456436157227,1.710895958240144e-08,-12.601573760002378,38.538513634107396,41.31013983533563,0.9672032594680786,0.23435741662979126,0.0951969176530838,-0.02306661382317543
0.1205,-24.369516792726262,12.384375884379468,16.260530738511168,-0.22803771331343722,0.6523026569235024,0.7865855487259187,27.289812088012695,11.2518892288208,-1.3735072457166098e-07,-12.579866241345439,38.53689603763226,41.299236388096624,0.9670954942703247,0.23476751148700714,0.09526669234037399,-0.02312649041414261
0.121,-24.623842202289264,12.340162794960497,16.28444819328011,-0.22748939900173257,0.6518047622429318,0.7861537230212989,27.338241577148438,11.261128425598145,7.725902406718888e-08,-12.558315197928282,38.53492430218216,41.288066337726846,0.9669885039329529,0.23517435789108276,0.09533488005399704,-0.023185713216662407
0.1215,-24.879137093246285,12.295281728694045,16.307740698140858,-0.2269449129428226,0.6513031900891111,0.7857267358773049,27.386289596557617,11.270176887512207,-2.5345054055492255e-08,-12.536921339106945,38.5325902058494,41.27662156300715,0.9668822884559631,0.23557794094085693,0.09540148824453354,-0.023244284093379974
0.122,-25.135396776920786,12.24971378400797,16.330415756725657,-0.22640429699988782,0.6507979334362176,0.7853047939417943,27.43395233154297,11.279033660888672,-5.0081325753126293e-08,-12.515685524346152,38.52988560554892,41.264894085154715,0.9667768478393555,0.23597827553749084,0.09546653926372528,-0.02330220304429531
0.1225,-25.392616028060996,12.203439523424285,16.352480823548188,-0.22586759482117605,0.6502889846398786,0.7848880994748535,27.481225967407227,11.287702560424805,1.663735247348086e-07,-12.49460876475681,38.526802441088,41.25287607215351,0.9666721820831299,0.2363753318786621,0.09553004801273346,-0.02335946634411812
0.123,-25.650789106686673,12.156438998720512,16.373943319625504,-0.22533485183529953,0.6497763354037606,0.7844768502207208,27.528121948242188,11.296189308166504,-1.3342244642444712e-07,-12.473692224145255,38.523332739263694,41.24055984291111,0.9665684103965759,0.2367691546678543,0.09559204429388046,-0.02341608516871929
0.1235,-25.90990978052891,12.108691776798052,16.394810648543558,-0.2248061152383886,0.6492599767475508,0.784071239283677,27.574617385864258,11.304482460021973,-2.389493545251753e-07,-12.452937219568616,38.519468617983335,41.22793787123749,0.9664652347564697,0.2371596395969391,0.0956524983048439,-0.023472042754292488
0.124,-26.1699713480338,12.06017696621716,16.415090212926742,-0.22428143397309114,0.6487398989764217,0.7836714550080154,27.620729446411133,11.31259536743164,-3.0825373187326477e-07,-12.432345221391678,38.51520229040517,41.21500278964342,0.9663629531860352,0.2375468611717224,0.09571146219968796,-0.023527350276708603
0.1245,-26.430966661899756,12.010873244357002,16.434789431271493,-0.2237608586994162,0.648216091652038,0.783277680862198,27.666452407836914,11.320526123046875,-6.079303460637675e-08,-12.411917852841531,38.510526069094574,41.201747392954935,0.9662614464759827,0.23793081939220428,0.09576894342899323,-0.023582005873322487
0.125,-26.692888153117746,11.960758885159033,16.453915755102134,-0.22324444175744942,0.6476885435651872,0.7828900953273116,27.711790084838867,11.328276634216309,-1.2723948827897402e-07,-12.391656889057632,38.50543237019196,41.188164641741196,0.966160774230957,0.23831148445606232,0.0958249494433403,-0.02363601140677929
0.1255,-26.95572785548261,11.909811787411215,16.47247668640736,-0.22273223712197993,0.6471572427100932,0.7825088717899266,27.756736755371094,11.335848808288574,-1.6365228816539457e-07,-12.371564255636015,38.499913717587546,41.17424766555318,0.9660608768463135,0.2386888563632965,0.09587950259447098,-0.02368936687707901
0.126,-27.219477430542966,11.85800950353001,16.490479795313732,-0.2222243003490978,0.6466221762604807,0.7821341784394631,27.80129051208496,11.343241691589355,-1.6981192629828001e-07,-12.351642026667344,38.49396274709827,41.159989765970415,0.9659618139266968,0.23906292021274567,0.09593261033296585,-0.02374206855893135
0.1265,-27.484128192956483,11.805329268796944,16.507932737952817,-0.22172068851484408,0.6460833305474507,0.7817661781701675,27.8454532623291,11.350460052490234,-1.689820834371858e-07,-12.331892422269965,38.487572210641815,41.145384419453656,0.9658635854721069,0.2394336760044098,0.09598429501056671,-0.02379412017762661
0.127,-27.749671136216584,11.751748031005862,16.524843274477707,-0.22122146014600857,0.645540691039227,0.7814050284877971,27.88922119140625,11.357503890991211,-3.266002224222575e-08,-12.31231780562004,38.48073498040232,41.13042528000133,0.9657661318778992,0.23980112373828888,0.09603456407785416,-0.023845521733164787
0.1275,-28.01609695871596,11.697242480477021,16.54121928718354,-0.22072667514319247,0.644994242322825,0.781050881421113,27.932605743408203,11.36437702178955,-6.379606531936588e-08,-12.292920679482126,38.473444052982195,41.115106181607544,0.9656696319580078,0.24016527831554413,0.09608344733715057,-0.02389627695083618
0.128,-28.28339609011156,11.641789080393634,16.55706879868721,-0.22023639469627013,0.6444439680876974,0.7807038834382692,27.975582122802734,11.371073722839355,1.6301119343253845e-09,-12.273703682244749,38.46569255353449,41.09942114052016,0.9655737280845642,0.24052605032920837,0.09613092243671417,-0.023946374654769897
0.1285,-28.551558717955487,11.585364097416695,16.5723999901201,-0.21975068119240218,0.6438898511114082,0.7803641753681917,28.01817512512207,11.377607345581055,-5.0154859820850106e-08,-12.254669583466669,38.457473739869776,41.08336435729746,0.9654788970947266,0.24088354408740997,0.09617704898118973,-0.023995831608772278
0.129,-28.82057481455493,11.527943632533274,16.587221219288256,-0.21926959811676802,0.643331873247365,0.7800318923270381,28.060365676879883,11.3839693069458,4.0140374579777927e-08,-12.235821278940653,38.44878100653104,41.066930218661255,0.9653847813606262,0.24123767018318176,0.09622180461883545,-0.024044634774327278
0.1295,-29.09043416402478,11.46950365209404,16.60154103875367,-0.21879320994620627,0.6427700154146735,0.779707163649812,28.102161407470703,11.39016342163086,1.3582321400917863e-07,-12.217161785282803,38.43960788883106,41.05011329914648,0.9652915000915527,0.24158845841884613,0.09626521170139313,-0.024092787876725197
0.13,-29.361126389494995,11.41002001899534,16.615368213790674,-0.21832158203596194,0.642204257590127,0.7793901128272243,28.1435546875,11.396193504333496,-8.621669600472615e-09,-12.198694234056374,38.42994806684491,41.032908362544816,0.9651990532875061,0.2419358789920807,0.09630728513002396,-0.024140292778611183
0.1305,-29.632640980435358,11.34946852396149,16.628711740170964,-0.2178547804997677,0.6416345788023823,0.7790808574478656,28.184551239013672,11.402058601379395,-1.5357635163582017e-07,-12.18042186544083,38.4197953693518,41.01531036314295,0.9651075005531311,0.24227994680404663,0.09634804725646973,-0.024187151342630386
0.131,-29.904967320059345,11.287824916883356,16.641580861731605,-0.21739287208349006,0.6410609571283363,0.778779509145766,28.225156784057617,11.40776538848877,-6.784988215713383e-08,-12.162348021457232,38.40914377771908,40.997314446753876,0.9650169014930725,0.24262067675590515,0.09638752043247223,-0.024233363568782806
0.1315,-30.178094712768985,11.225064938169139,16.653985087679406,-0.21693592403259954,0.6404833696917387,0.7784861735534125,28.265350341796875,11.413308143615723,-2.0710503179088846e-07,-12.144476138762878,38.397987429721624,40.978915951541296,0.9649270176887512,0.24295799434185028,0.09642568975687027,-0.024278927594423294
0.132,-30.45201241160163,11.161164350064146,16.665934209586652,-0.21648400395372772,0.6399017926640526,0.7782009502602749,28.305143356323242,11.41869068145752,-2.2924652398614853e-08,-12.126809741028659,38.38632062329021,40.96011040863717,0.9648380279541016,0.2432919293642044,0.09646258503198624,-0.02432384341955185
0.1325,-30.72670964564064,11.096098967896262,16.677438318032397,-0.21603717967060238,0.6393162012675802,0.777923932776908,28.344541549682617,11.423920631408691,8.586179234271185e-08,-12.109352430914308,38.37413782018123,40.94089354255199,0.9647499918937683,0.24362251162528992,0.09649822860956192,-0.02436811663210392
0.133,-31.00217564735047,11.029844691204621,16.688507818844663,-0.2155955190746529,0.6387265697808702,0.7776552085046712,28.38353157043457,11.42898941040039,1.363213328886559e-07,-12.09210788165707,38.36143364956179,40.92126127137881,0.9646627306938171,0.24394966661930084,0.09653261303901672,-0.024411741644144058
0.1335,-31.278399679797364,10.962377534709336,16.699153448899324,-0.21515908997060113,0.6381328715464075,0.7773948587111182,28.4221134185791,11.433903694152832,-1.0875241152064063e-08,-12.075079828290841,38.34820291150251,40.901209706790944,0.9645763635635376,0.24427340924739838,0.09656576067209244,-0.024454722180962563
0.134,-31.55537106371713,10.893673659080637,16.709386291431876,-0.21472795991736449,0.6375350789805864,0.7771429585110943,28.46029281616211,11.438667297363281,1.0159006080812105e-07,-12.058272058513728,38.33444058037135,40.88073515383436,0.9644909501075745,0.2445937544107437,0.09659770131111145,-0.024497060105204582
0.1345,-31.833079204390216,10.823709401466639,16.71921779081934,-0.21430219606460554,0.6369331635859727,0.7768995768535729,28.49806022644043,11.443276405334473,-1.4328583120004623e-07,-12.041688403222652,38.32014180812204,40.85983411051597,0.9644063115119934,0.24491065740585327,0.09662841260433197,-0.024538753554224968
0.135,-32.111513618286274,10.752461305739386,16.72865976679021,-0.2138818649852835,0.6363270959658397,0.7766647765142618,28.53542709350586,11.447737693786621,7.104651444933552e-08,-12.025332726735007,38.305301927469735,40.83850326718866,0.9643226861953735,0.24522414803504944,0.09665795415639877,-0.02457980439066887
0.1355,-32.390663959438605,10.679906152419628,16.737724428021288,-0.2134670325045633,0.6357168458409702,0.7764386140940015,28.572383880615234,11.452051162719727,1.9099363157693006e-07,-12.009208916717723,38.28991645494768,40.8167395057349,0.9642399549484253,0.24553419649600983,0.09668631106615067,-0.024620214477181435
0.136,-32.67052004551109,10.606020988241578,16.746424385081404,-0.21305776352546046,0.6351023820687103,0.7762211400229648,28.60892105102539,11.45621395111084,-1.0184142240632355e-07,-11.993320873845454,38.2739810938383,40.79453989855046,0.9641580581665039,0.24584075808525085,0.09671348333358765,-0.024659978225827217
0.1365,-32.95107188351871,10.530783155319606,16.75477266268292,-0.21265412185159974,0.634483672664245,0.7760123985706759,28.645057678222656,11.460234642028809,-8.246648697252112e-09,-11.977672501209991,38.25749173697179,40.77190170732995,0.9640771746635437,0.2461439073085785,0.0967395156621933,-0.024699104949831963
0.137,-33.23230969516413,10.454170319880047,16.762782711203194,-0.21225617000747948,0.6338606848240792,0.7758124278618378,28.68077278137207,11.464105606079102,2.1906308234065364e-07,-11.96226769350394,38.24044446938662,40.748822381656815,0.9639970660209656,0.24644355475902557,0.09676439315080643,-0.024737585335969925
0.1375,-33.51422394175314,10.376160500522017,16.7704684174397,-0.2118639690566414,0.6332333849516915,0.7756212598979733,28.71607780456543,11.467836380004883,-1.3717311730943038e-07,-11.947110326002214,38.22283557084557,40.7252995573998,0.9639179110527039,0.2467397302389145,0.09678814560174942,-0.024775430560112
0.138,-33.79680534865156,10.296732095972253,16.777844114563287,-0.21147757841815024,0.6326017386853237,0.7754389205848634,28.75096893310547,11.471427917480469,1.8685103242432888e-08,-11.932204243365646,38.204661518201334,40.701331054918626,0.9638397693634033,0.24703244864940643,0.09681079536676407,-0.024812638759613037
0.1385,-34.08004492924737,10.21586391230006,16.78492459123605,-0.21109705568179465,0.6319657109278678,0.7752654297657606,28.78544807434082,11.47487735748291,1.2326373166615667e-07,-11.917553248291389,38.18591898760621,40.67691487708172,0.9637625217437744,0.24732166528701782,0.09683234244585037,-0.02484920807182789
0.139,-34.36393400838198,10.133535189559614,16.791725099861406,-0.210722456422428,0.6313252658788104,0.7751008012603561,28.819499969482422,11.47818660736084,-1.1438054059453862e-07,-11.903161090035463,38.166604856560426,40.65204920709907,0.9636861085891724,0.24760735034942627,0.09685278683900833,-0.024885138496756554
0.1395,-34.64846424521553,10.049725627827788,16.798261363935808,-0.2103538340138691,0.6306803670681833,0.7749450429094621,28.85314178466797,11.481362342834473,1.317389575206107e-07,-11.88903145283305,38.14671620579404,40.62673240617348,0.9636107683181763,0.24788956344127655,0.09687217324972153,-0.02492043562233448
0.14,-34.9336276554912,9.96441541260722,16.804549584472895,-0.20999123944278947,0.6300309773924719,0.774798156625373,28.88636016845703,11.484397888183594,-1.3175100121998184e-08,-11.875167944242634,38.12625032097744,40.600963010973835,0.963536262512207,0.2481682300567627,0.09689047932624817,-0.02495509572327137
0.1405,-35.219416633165075,9.87758523956515,16.810606445472896,-0.2096347211230149,0.6293770591524221,0.7746601384478508,28.91915512084961,11.487300872802734,-4.5086167688168644e-08,-11.861574083440422,38.10520469425593,40.57473973093398,0.9634627103805542,0.2484433650970459,0.09690774232149124,-0.024989120662212372
0.14100000000000001,-35.50582397136803,9.789216338580198,16.81644911841163,-0.209284324710674,0.6287185740926906,0.7745309786056853,28.9515380859375,11.490074157714844,-1.3427055023385037e-07,-11.848253289491709,38.083577025604185,40.54806144538145,0.9633901715278625,0.24871498346328735,0.09692398458719254,-0.025022517889738083
0.14150000000000001,-35.79284288266766,9.699290497070212,16.822095265725455,-0.20894009292061946,0.6280554834432704,0.7744106615837602,28.983489990234375,11.492711067199707,-4.24323189918141e-08,-11.835208869625815,38.061365223996596,40.52092720049994,0.9633184671401978,0.24898302555084229,0.09693918377161026,-0.025055278092622757
0.14200000000000002,-36.08046701859876,9.607790082576013,16.827563043270246,-0.20860206534456224,0.627387747962628,0.7742991661955564,29.0150203704834,11.495222091674805,-1.096209256701286e-08,-11.822444007541954,38.038567408389895,40.493336206130266,0.9632478356361389,0.24924755096435547,0.0969533920288086,-0.02508741244673729
0.14250000000000002,-36.368690488432414,9.51469806457684,16.832871101734554,-0.20827027827134312,0.6267153279824847,0.7741964656610119,29.046125411987305,11.497601509094238,-5.266698366312994e-08,-11.809961751772715,38.01518190851515,40.46528783241468,0.9631780385971069,0.24950848519802094,0.09696658700704575,-0.025118913501501083
0.14300000000000002,-36.65750787715367,9.419998035515036,16.83803858698883,-0.20794476450977206,0.6260381834541567,0.7741025276896548,29.076810836791992,11.499857902526855,5.2459995458775666e-08,-11.7977650041323,37.991207265475545,40.436781606288676,0.9631093740463257,0.24976587295532227,0.0969788134098053,-0.025149788707494736
0.14350000000000002,-36.94691426262069,9.323674231008738,16.843085139355207,-0.20762555321446816,0.6253562739963909,0.7740173145689078,29.107065200805664,11.50199031829834,-6.766404681002314e-08,-11.785856508276785,37.966642232148374,40.40781720782661,0.9630416631698608,0.2500196695327759,0.09699007123708725,-0.025180038064718246
0.14400000000000002,-37.236905231877095,9.225711549232818,16.84803089178361,-0.20731266971511492,0.624669558944609,0.7739407832574733,29.136884689331055,11.503993034362793,-9.466259598411852e-08,-11.774238838402692,37.94148577338844,40.378394466445584,0.9629747867584229,0.2502698600292206,0.0970003604888916,-0.025209659710526466
0.1445,-37.5274768965925,9.1260955694497,16.852896466923116,-0.20700613534955503,0.6239779974014743,0.7738728854836776,29.16628646850586,11.505877494812012,1.4798668246385205e-07,-11.762914388110962,37.91573706603139,40.348513356973676,0.9629089832305908,0.25051650404930115,0.09700971841812134,-0.025238661095499992
0.145,-37.81862590760563,9.024812569673175,16.85770297307859,-0.20670596730113688,0.6232815482887059,0.7738135678486721,29.195255279541016,11.507638931274414,3.2573225894338975e-07,-11.751885359462426,37.889395498695656,40.31817399558825,0.9628441333770752,0.2507595419883728,0.09701813757419586,-0.025267040356993675
0.1455,-38.110349468546985,8.921849543449769,16.862471999045717,-0.206412178440714,0.6225801704000425,0.7737627719343538,29.223785400390625,11.509279251098633,-3.6937692016181245e-08,-11.74115375225064,37.862460671382145,40.28737663563036,0.962780237197876,0.25099891424179077,0.09702562540769577,-0.025294793769717216
0.146,-38.40264534851842,8.817194215743651,16.867225607819076,-0.20612477717370511,0.6218738224552783,0.7737204344158896,29.25189208984375,11.51080322265625,-1.9474768464533554e-07,-11.730721353517955,37.83493239487105,40.25612166330181,0.9627174139022827,0.25123468041419983,0.09703222662210464,-0.025321928784251213
0.1465,-38.69551189380877,8.710835057912705,16.871986329170756,-0.2058437672925957,0.6211624631552662,0.7736864871786964,29.27955436706543,11.51220703125,-1.3452654457069002e-07,-11.720589727339593,37.806810689915615,40.22440959325085,0.9626554250717163,0.2514668107032776,0.0970379114151001,-0.025348441675305367
0.147,-38.98894803862597,8.602761301764783,16.8767771510985,-0.20556914783527186,0.620446051237808,0.7736608574397408,29.30679702758789,11.513500213623047,1.419824968706962e-07,-11.710760204900629,37.77809578623323,40.1922410640538,0.9625945687294006,0.25169533491134644,0.09704273194074631,-0.025374339893460274
0.1475,-39.28295331482724,8.492962952684488,16.881621510145454,-0.2053009129495514,0.6197245455343275,0.7736434678730024,29.33360481262207,11.514679908752441,-2.579192504015282e-08,-11.701233874889647,37.74878812129445,40.159616833599166,0.9625348448753357,0.251920223236084,0.09704669564962387,-0.025399627164006233
0.148,-39.57752786063077,8.381430801822932,16.886543280595244,-0.20503905176427958,0.6189979050272311,0.7736342367389517,29.359962463378906,11.515741348266602,-3.080837416291615e-07,-11.692011574232744,37.71888833891071,40.1265377743812,0.9624758958816528,0.25214138627052307,0.0970497727394104,-0.0254242904484272
0.1485,-39.87267242829346,8.26815643734367,16.891566762548504,-0.2047835482673354,0.6182660889078607,0.7736330780178672,29.385883331298828,11.516692161560059,1.3167857559892582e-07,-11.683093879190416,37.68839728762253,40.09300486871079,0.9624179601669312,0.25235891342163086,0.09705200791358948,-0.02544833905994892
0.149,-40.16838839074114,8.153132254720177,16.89671666888953,-0.20453438119088777,0.6175290566349383,0.7736399015468388,29.41136932373047,11.517535209655762,4.675235132367561e-08,-11.674481096839274,37.6573160188896,40.05901920385055,0.9623610973358154,0.25257277488708496,0.0970534235239029,-0.025471782311797142
0.1495,-40.46467774713851,8.036351466081523,16.902018111153513,-0.2042915239042265,0.6167867679934009,0.7736546131602712,29.436420440673828,11.518268585205078,-1.7274075503337372e-07,-11.666173256959926,37.62564578508508,40.02458196708211,0.9623053073883057,0.2527829706668854,0.09705401211977005,-0.025494614616036415
0.15,-40.76154312738854,7.917808108604406,16.907496584307502,-0.20405494431447893,0.6160391831535261,0.7736771148337075,29.46102523803711,11.518893241882324,-2.1975449016053972e-08,-11.658170104351301,37.593388037296535,39.98969444071353,0.9622504115104675,0.2529894709587097,0.09705378115177155,-0.02551683411002159
0.1505,-41.05898779555221,7.797497051951193,16.91317795046024,-0.20382460477550804,0.6152862627302482,0.7737073048307935,29.485193252563477,11.519413948059082,2.7210420583401174e-08,-11.650471091590836,37.560544422936424,39.95435799703469,0.9621966481208801,0.253192275762558,0.09705276787281036,-0.025538450106978416
0.151,-41.35701565218069,7.675414004755109,16.919088421518293,-0.20360046200527399,0.6145279678425629,0.773745077853187,29.5089111328125,11.519826889038086,1.9885605695435515e-07,-11.643075372259096,37.5271167831652,39.91857409322901,0.9621437788009644,0.2533913552761078,0.09705094993114471,-0.025559455156326294
0.1515,-41.65563123555439,7.551555520155073,16.92525454080801,-0.203382467011927,0.6137642601729145,0.7737903251932139,29.532196044921875,11.520137786865234,-1.5737629155410104e-07,-11.63598179464661,37.493107150130555,39.882344266249795,0.9620921015739441,0.2535867393016815,0.09704836457967758,-0.02557985857129097
0.152,-41.95483972182385,7.425919000383916,16.931703163685214,-0.20317056502887895,0.6129951020264737,0.7738429348890756,29.555025100708008,11.520344734191895,2.432412316011323e-08,-11.629188895959302,37.458517744026814,39.84567012766984,0.9620413184165955,0.2537783980369568,0.09704500436782837,-0.025599654763936996
0.1525,-42.254646924050306,7.298502700415397,16.938461437156104,-0.20296469545909046,0.6122204563901904,0.7739027918824016,29.577411651611328,11.5204496383667,-2.4495387052070328e-08,-11.622694897038357,37.42335096997801,39.80855335851269,0.961991548538208,0.2539663314819336,0.09704089164733887,-0.02561885304749012
0.153,-42.555059290144044,7.169305730676592,16.945556778535632,-0.20276479182878923,0.6114402869915324,0.7739697781779338,29.599361419677734,11.52045726776123,-3.331257758532047e-08,-11.616497697609098,37.38760941474968,39.7709957040746,0.9619429111480713,0.2541505694389343,0.09703604131937027,-0.02563745155930519
0.1535,-42.8560838997015,7.038328058833564,16.953016853171054,-0.20257078175081678,0.6106545583567995,0.7740437730051378,29.620859146118164,11.520365715026855,-5.0448733190933126e-08,-11.610594872072202,37.3512958432934,39.73299896874578,0.9618953466415405,0.2543310523033142,0.09703046083450317,-0.02565545216202736
0.154,-43.157728459742664,6.905570510659773,16.96086955126045,-0.20238258689778393,0.6098632358689253,0.7741246529815184,29.64191246032715,11.520176887512207,8.629842085383643e-08,-11.604983665849652,37.31441319512962,39.69456501084043,0.961848795413971,0.25450780987739563,0.09702415764331818,-0.025672854855656624
0.1545,-43.46000129935286,6.771034769997681,16.969142963798394,-0.20220012298519735,0.6090662858246574,0.7742122922774267,29.66251564025879,11.519890785217285,-2.67556600874741e-07,-11.599660992296696,37.27696458057341,39.65569573744404,0.9618032574653625,0.2546808123588562,0.09701713174581528,-0.025689665228128433
0.155,-43.762911363234394,6.634723377825513,16.977865357681917,-0.20202329976469702,0.6082636754910228,0.7743065627821323,29.68267822265625,11.519508361816406,1.400614557667268e-08,-11.594623430189797,37.238953276808786,39.616393099287485,0.9617588520050049,0.2548500895500183,0.09700940549373627,-0.02570587769150734
0.1555,-44.06646820417416,6.49663973044226,16.987065150012825,-0.20185202102752686,0.6074553731609899,0.774407334270942,29.702377319335938,11.51902961730957,1.0758679991340614e-07,-11.58986722179931,37.20038272381734,39.57665908565722,0.9617153406143188,0.2550155520439148,0.09700096398591995,-0.025721492245793343
0.156,-44.37068197443671,6.356788076785277,16.996770881633093,-0.2016861846183425,0.6066413482082217,0.7745144745731393,29.72163200378418,11.51845932006836,-6.499149218797129e-09,-11.585388271554763,37.16125652016664,39.536495719350356,0.9616729617118835,0.25517725944519043,0.09699185937643051,-0.025736521929502487
0.1565,-44.6755634160923,6.215173514896038,17.007011189932726,-0.20152568245943453,0.6058215711408423,0.7746278497405132,29.740434646606445,11.517797470092773,2.3880937760623056e-07,-11.581182145308947,37.12157841866504,39.49590505168479,0.9616316556930542,0.2553352117538452,0.09698207676410675,-0.025750959292054176
0.157,-44.98112385029189,6.071801987550615,17.01781478097029,-0.20137040058543024,0.6049960136541154,0.7747473242162601,29.75878143310547,11.517040252685547,-3.1939160294314206e-07,-11.57724407020609,37.08135232188833,39.45488915757253,0.9615913033485413,0.2554893493652344,0.09697160869836807,-0.02576480805873871
0.1575,-45.28737516550238,5.926680277072679,17.029210400948344,-0.20122021918851324,0.6041646486819588,0.7748727610040175,29.776681900024414,11.516196250915527,1.8438653626162704e-07,-11.573568935158104,37.04058227758552,39.41345013066678,0.9615521430969238,0.2556397318840027,0.09696049243211746,-0.025778064504265785
0.158,-45.594329804717034,5.779815999347739,17.041226807087057,-0.20107501267417965,0.6033274504472038,0.7750040218368117,29.794126510620117,11.515260696411133,-7.003330182442369e-08,-11.5701512919316,36.99927247396947,39.37159007859106,0.9615139961242676,0.25578632950782776,0.09694872051477432,-0.025790739804506302
0.1585,-45.90200075165742,5.631217597058475,17.053892737940856,-0.20093464972752834,0.6024843945105197,0.7751409673456819,29.81111717224121,11.514237403869629,3.658190905753145e-08,-11.56698535684717,36.95742723489975,39.32931111826039,0.9614769816398621,0.2559291124343872,0.09693630784749985,-0.02580282650887966
0.159,-46.21040151598524,5.480894332161846,17.067236883203773,-0.2007989933900614,0.6016354578179184,0.775283457227757,29.82765007019043,11.513123512268066,1.5188980739822e-07,-11.564065013091227,36.91505101496389,39.28661537130286,0.961440920829773,0.25606808066368103,0.09692323952913284,-0.025814322754740715
0.1595,-46.519546117542916,5.3288562776296775,17.081287853050746,-0.20066790114695066,0.6007806187467677,0.7754313504135537,29.843727111816406,11.511923789978027,2.1903430535985535e-07,-11.56138381363943,36.87214839446437,39.24350495959151,0.9614059925079346,0.2562032639980316,0.0969095528125763,-0.025825241580605507
0.16,-46.829449069644426,5.175114308475138,17.096074147063014,-0.2005412250247034,0.5999198571502318,0.7755845052332687,29.859352111816406,11.510638236999512,-1.646446357028708e-08,-11.558934984789591,36.828724074318046,39.19998200089473,0.9613721966743469,0.2563346326351166,0.0968952402472496,-0.02583557739853859
0.1605,-47.14012536143803,5.019680092088421,17.11162412278656,-0.20041881169914122,0.5990531544000727,0.7757427795818439,29.874515533447266,11.509263038635254,-2.5983416662711534e-07,-11.55671143030059,36.78478287087526,39.156048604654515,0.9613393545150757,0.2564621567726135,0.09688028693199158,-0.025845326483249664
0.161,-47.45159043936534,4.862566077905663,17.12796596397396,-0.20030050261358237,0.5981804934277425,0.7759060310825714,29.88923454284668,11.507807731628418,1.5315782775360276e-07,-11.554705736132851,36.74032971066587,39.11170686790107,0.9613077640533447,0.2565859258174896,0.09686475247144699,-0.025854500010609627
0.1615,-47.76386018774092,4.703785486435792,17.145127648559974,-0.20018613410710037,0.5973018587637025,0.7760741172490278,29.903488159179688,11.506265640258789,-4.4072951510543135e-08,-11.552910175784566,36.695369625079216,39.06695887131241,0.961277186870575,0.2567058503627777,0.09684859961271286,-0.02586309425532818
0.162,-48.07695090847901,4.543352297670634,17.16313691642288,-0.2000755375527082,0.5964172365749062,0.7762468956451106,29.917274475097656,11.504636764526367,-5.232183752923447e-08,-11.55131671621683,36.64990774498563,39.0218066754271,0.9612475633621216,0.2568219006061554,0.09683182835578918,-0.02587110362946987
0.1625,-48.39087929999484,4.38128123890423,17.18202123698323,-0.19996853950529803,0.5955266147003946,0.7764242240429677,29.930614471435547,11.502927780151367,3.0319932875499944e-07,-11.54991702435958,36.603949295306684,38.97625231701853,0.9612191319465637,0.25693416595458984,0.09681447595357895,-0.025878535583615303
0.163,-48.70566243530903,4.2175877719878185,17.201807776692796,-0.19986496185914676,0.5946299826849438,0.7766059605786018,29.943485260009766,11.501132011413574,3.017184013742735e-08,-11.548702474189291,36.55749958954156,38.93029780563845,0.961191713809967,0.2570425570011139,0.09679651260375977,-0.025885390117764473
0.1635,-49.02131773938486,4.052288080047377,17.222523366466458,-0.1997646220147763,0.5937273318107191,0.7767919639049474,29.955904006958008,11.49925708770752,-9.697424019350365e-08,-11.547664154368066,36.51056402425715,38.88394512033741,0.9611654877662659,0.2571471333503723,0.09677797555923462,-0.02589167095720768
0.164,-49.33786296572917,3.88539905369114,17.244194469110415,-0.19966733305493872,0.59281865512689,0.776982093342216,29.967863082885742,11.497298240661621,-1.8615526187204523e-07,-11.54679287643282,36.46314807354904,38.837196206569345,0.9611403346061707,0.2572478652000427,0.09675884991884232,-0.025897372514009476
0.1645,-49.655316172288686,3.7169382767348464,17.266847146799932,-0.19957290392947663,0.5919039474771631,0.7771762090253079,29.979354858398438,11.495256423950195,1.3678456411980733e-07,-11.546079183522147,36.4152572834812,38.790052973287565,0.9611161947250366,0.25734472274780273,0.09673912823200226,-0.025902491062879562
0.165,-49.973695696675094,3.5469240114727727,17.29050702866008,-0.19948113964879335,0.5909832055251976,0.7773741720480997,29.990388870239258,11.493135452270508,-4.445954004950181e-08,-11.545513359627643,36.36689726651151,38.74251729023856,0.9610932469367981,0.2574377655982971,0.09671884030103683,-0.025907041504979134
0.1655,-50.293020130752126,3.375375183522858,17.31519927850326,-0.19939184148564368,0.5900564277778773,0.777575844604413,30.000959396362305,11.490931510925293,-7.331752271966252e-08,-11.545085439355043,36.31807369591148,38.694590985460806,0.961071252822876,0.2575269043445587,0.09669796377420425,-0.025911010801792145
0.166,-50.61330829462031,3.202311366274542,17.340948562776457,-0.19930480718494623,0.5891236146064067,0.7777810901254937,30.01106834411621,11.4886474609375,-1.7134421170794667e-07,-11.544785218180154,36.268792300186746,38.64627584299364,0.9610505104064941,0.2576121985912323,0.09667652100324631,-0.025914406403899193
0.1665,-50.93457921003383,3.027752764967863,17.367779018771813,-0.1992198311812939,0.5881847682652077,0.7779897734138069,30.020715713500977,11.486282348632812,1.722454925356942e-07,-11.544602263183252,36.21905885750667,38.59757360080273,0.9610308408737183,0.25769364833831787,0.0966545045375824,-0.02591722272336483
0.167,-51.2568520732871,2.8517202004326925,17.395714223152726,-0.19913670482382895,0.5872398929086159,0.7782017607729932,30.0299015045166,11.48383617401123,1.321186573477462e-07,-11.544525924244837,36.168879190150655,38.548485948927485,0.9610122442245483,0.25777125358581543,0.09663191437721252,-0.025919470936059952
0.1675,-51.58014622760698,2.674235092516841,17.424777160848322,-0.1990552166081264,0.5862889946053369,0.7784169201338069,30.03862762451172,11.481310844421387,-7.530660894872199e-08,-11.544545345684895,36.118259158978134,38.49901452785456,0.9609947800636292,0.2578449845314026,0.09660875797271729,-0.02592114359140396
0.168,-51.90448113508904,2.495319443231848,17.454990194367536,-0.19897515241472233,0.5853320813506797,0.778635121175894,30.0468807220459,11.478704452514648,-7.27469000594283e-08,-11.54464947832687,36.06720465793036,38.449160927122634,0.9609783887863159,0.25791481137275696,0.09658502787351608,-0.02592223696410656
0.1685,-52.22987634821543,2.3149958196451257,17.486375033584007,-0.19889629575390141,0.584369163076548,0.7788562354452429,30.05467414855957,11.47601318359375,3.082167268075864e-07,-11.544827091966898,36.0157216085713,38.39892668416225,0.9609630107879639,0.2579807639122009,0.09656070917844772,-0.0259227491915226
0.169,-52.55635148099343,2.133287336547084,17.518952706042256,-0.19881842801635033,0.5834002516591895,0.7790801364671788,30.062007904052734,11.473243713378906,-2.5226191269211995e-07,-11.54506678822813,35.96381595467478,38.348313283373656,0.9609488844871521,0.2580428719520569,0.096535824239254,-0.02592269331216812
0.1695,-52.883926179753914,1.950217638921612,17.552743527834195,-0.19874132872926567,0.5824253609247214,0.7793066998547548,30.068870544433594,11.470394134521484,4.07494660237262e-08,-11.545357013779084,35.91149365686603,38.29732215544675,0.9609358310699463,0.25810110569000244,0.0965103730559349,-0.025922058150172234
0.17,-53.21262009364862,1.7658108842481017,17.58776707509466,-0.1986647758174972,0.5814445066524229,0.7795358034124203,30.07527732849121,11.467462539672852,1.0436682629233474e-07,-11.545686073894641,35.85876068732408,38.2459546769243,0.9609238505363464,0.2581554651260376,0.09648434072732925,-0.025920845568180084
0.1705,-53.54245284488674,1.5800917246629351,17.624042156163167,-0.19858854586929225,0.5804577065758221,0.7797673272348441,30.08121681213379,11.464449882507324,1.944492922234531e-08,-11.546042146337408,35.80562302455298,38.19421217001126,0.9609130620956421,0.25820595026016235,0.09645773470401764,-0.025919057428836823
0.171,-53.87344399875001,1.3930852890080054,17.661586784458265,-0.19851241440619835,0.579464980381588,0.7800011538007766,30.08669090270996,11.461355209350586,1.2024936779653217e-07,-11.546413295536778,35.752086648228726,38.14209590263134,0.9609033465385437,0.2582525312900543,0.09643054753541946,-0.025916688144207
0.1715,-54.20561303342725,1.2048171647935868,17.700418152109133,-0.19843615615667118,0.5784663497062511,0.7802371680618565,30.091693878173828,11.458179473876953,-4.333112091359226e-09,-11.546787487042419,35.69815753412915,38.089607088731256,0.9608947038650513,0.2582952380180359,0.09640277922153473,-0.025913743302226067
0.17200000000000001,-54.538979309707784,1.0153133801024825,17.74055260438825,-0.19835954533292913,0.5774618381307773,0.780475257526256,30.09623908996582,11.45492172241211,1.295030784831397e-07,-11.547152602228717,35.643841649153735,38.03674688883372,0.9608872532844543,0.25833407044410706,0.09637442976236343,-0.025910217314958572
0.17250000000000001,-54.873562040574456,0.8246003854619692,17.782005614987014,-0.19828235591058313,0.5764514711730241,0.7807153123370875,30.100311279296875,11.451576232910156,-6.281760533966008e-08,-11.547496453225909,35.58914494644042,37.98351641083793,0.9608807563781738,0.25836899876594543,0.09634546935558319,-0.025906110182404518
0.17300000000000001,-55.209380260736424,0.6327050357095306,17.82479176217534,-0.19820436191057111,0.5754352762781073,0.7809572253454887,30.103927612304688,11.448152542114258,-1.1425650825458433e-07,-11.547806798053733,35.53407336058573,37.92991671106723,0.9608755707740784,0.2584000825881958,0.09631594270467758,-0.02590142749249935
0.17350000000000002,-55.5464527961416,0.4396545718778286,17.868924705883742,-0.19812533768291293,0.5744132828067242,0.7812008921783157,30.10707664489746,11.4446439743042,-1.482449807355124e-08,-11.548071355932722,35.47863280297583,37.87594879556243,0.9608714580535889,0.2584272623062134,0.09628580510616302,-0.025896156206727028
0.17400000000000002,-55.884798233508526,0.24547660312377534,17.914417165745693,-0.19804505819180168,0.5733855220214581,0.7814462113003883,30.1097469329834,11.441048622131348,1.7042910371856124e-07,-11.548277822748105,35.42282915723399,37.821613621618276,0.9608682990074158,0.2584505081176758,0.09625505656003952,-0.025890298187732697
0.17450000000000002,-56.22443488991802,0.05019908872592529,17.96128090013554,-0.19796329930154186,0.5723520270711209,0.7816930840712351,30.111976623535156,11.437373161315918,1.4831576322649198e-07,-11.548413886641084,35.36666827479172,37.76691209956073,0.9608665704727173,0.25846996903419495,0.09622372686862946,-0.025883866474032402
0.17500000000000002,-56.56538078250292,-0.1461496798262501,18.00952668623597,-0.1978798380628415,0.5713128329731697,0.7819414147962922,30.113718032836914,11.43360710144043,1.1537064636968353e-07,-11.548467243702019,35.310155970589435,37.71184509476159,0.9608656764030457,0.25848546624183655,0.09619175642728806,-0.025876842439174652
0.17550000000000002,-56.90765359827584,-0.34354109662836685,18.059164301166646,-0.19779445299896353,0.570267976594252,0.78219111077253,30.115001678466797,11.429756164550781,-6.5505041391134e-08,-11.54842561373979,35.25329801891294,37.65641342988658,0.9608660340309143,0.25849708914756775,0.09615917503833771,-0.025869233533740044
0.176,-57.25127066413272,-0.5419462590203261,18.11020250420424,-0.19770692439124143,0.5692174966289298,0.7824420823284757,30.115821838378906,11.42581844329834,-5.6041528750938596e-08,-11.548276756101702,35.196100149371716,37.60061788737245,0.9608675241470337,0.25850483775138855,0.09612596780061722,-0.02586103416979313
0.1765,-57.59624891707091,-0.7413359850874109,18.162649020121517,-0.19761703456346308,0.5681614335766375,0.7826942428586252,30.11617088317871,11.421792984008789,-6.191660872900684e-08,-11.548008485517984,35.13856804302465,37.54445921212787,0.9608701467514038,0.25850868225097656,0.09609213471412659,-0.025852246209979057
0.177,-57.94260487465882,-0.9416808309827658,18.216510523671484,-0.19752456816462935,0.5670998297169283,0.7829475088522321,30.116046905517578,11.417675018310547,6.328595286708705e-11,-11.54760868794521,35.080707328658974,37.48793811445248,0.9608737230300903,0.2585086226463318,0.09605764597654343,-0.02584286406636238
0.1775,-58.29035460579375,-1.1429511080515842,18.271792625240302,-0.19742931244959355,0.5660327290830752,0.7832017999164813,30.11547088623047,11.413471221923828,-5.820519177746064e-08,-11.547065336382552,35.02252357922776,37.43105527316797,0.9608786106109619,0.2585046887397766,0.09602252393960953,-0.0258328914642334
0.178,-58.639513701785596,-1.3451168997380598,18.32849985769038,-0.19733105755709296,0.5649601774340829,0.7834570387940593,30.114418029785156,11.40917682647705,-1.8168401538787293e-07,-11.546366506635291,34.96402230845116,37.37381133895414,0.9608845710754395,0.25849685072898865,0.0959867462515831,-0.02582232467830181
0.1785,-58.990097247799696,-1.5481480782569177,18.386635664412903,-0.19722959678468668,0.5638822222251797,0.7837131513751404,30.112905502319336,11.404789924621582,8.268326467941733e-08,-11.54550039299975,34.9052089675865,37.31620693788288,0.9608916640281677,0.2584851384162903,0.09595030546188354,-0.02581115812063217
0.179,-59.34211979469608,-1.7520143210120558,18.446202388606675,-0.1971247268601127,0.5627989125768511,0.783970066703826,30.11092185974121,11.400309562683105,-3.2235078606390744e-07,-11.544455323843799,34.846088942371686,37.25824267514156,0.9608998894691467,0.25846952199935913,0.09591318666934967,-0.025799397379159927
0.1795,-59.695595331297746,-1.9566851267457728,18.50720126379768,-0.1970162482085933,0.561710299242495,0.7842277169790716,30.108476638793945,11.395736694335938,8.27130506309004e-08,-11.543219777057633,34.78666755014708,37.19991913893823,0.9609092473983765,0.2584500312805176,0.09587538987398148,-0.025787031278014183
0.18,-60.05053725712144,-2.16212983140289,18.569632405612005,-0.1969039652156122,0.5606164345747516,0.7844860375501512,30.105566024780273,11.391068458557129,-1.7684800468487083e-07,-11.541782395349394,34.726950037159334,37.14123690457866,0.9609197378158569,0.2584266662597656,0.09583690017461777,-0.025774069130420685
0.1805,-60.40695835560357,-2.36831762369503,18.633494804811495,-0.19678768648470676,0.559517372490598,0.7847449669067199,30.102188110351562,11.386305809020996,-2.5677130111034785e-07,-11.54013200136061,34.666941576051926,37.08219653870671,0.9609313607215881,0.25839942693710327,0.09579771012067795,-0.025760503485798836
0.181,-60.764870767853004,-2.5752175603511627,18.698786321600434,-0.19666722508981682,0.558413168435268,0.785004446663532,30.098350524902344,11.381444931030273,2.6072075343108736e-07,-11.538257612576722,34.60664726354581,37.022798603697545,0.9609441161155701,0.2583683133125305,0.09575781226158142,-0.025746328756213188
0.1815,-61.124285966959945,-2.782798581041515,18.76550368120787,-0.19654239882174973,0.5573038793450754,0.7852644215399008,30.094038009643555,11.376485824584961,2.7389796741772443e-07,-11.536148456008277,34.54607211831334,36.96304366219336,0.960957944393158,0.258333295583725,0.09571719169616699,-0.02573154866695404
0.182,-61.48521473289197,-2.9910295229627977,18.833642470748956,-0.19641303042832525,0.5561895636092158,0.785524839333966,30.089265823364258,11.371426582336426,-1.401064366746141e-07,-11.533793982618738,34.485221079049396,36.90293228177137,0.9609729647636414,0.25829440355300903,0.09567584097385406,-0.025716161355376244
0.1825,-61.84766712800429,-3.1998791350736813,18.903197137365442,-0.19627894784777972,0.5550702810306182,0.7857856508918734,30.084020614624023,11.366265296936035,-5.8519017187563804e-08,-11.531183881475275,34.42409900274155,36.84246503973208,0.9609889984130859,0.2582515776157379,0.09563373774290085,-0.025700153782963753
0.183,-62.21165247319249,-3.4093160919703562,18.974160987643703,-0.1961399844350188,0.5539460927859288,0.7860468100719509,30.07831382751465,11.361003875732422,4.195567981923887e-08,-11.528308093599389,34.36271066314272,36.78164252799722,0.961006224155426,0.2582049071788788,0.09559089690446854,-0.025683537125587463
0.1835,-62.5771793247133,-3.619309007392927,19.046526188306082,-0.19599597918032205,0.5528170613846957,0.7863082737039941,30.0721435546875,11.355640411376953,-7.970474769081193e-08,-11.525156825494625,34.30106074944772,36.72046535810479,0.9610246419906616,0.25815436244010925,0.09554728865623474,-0.02566630393266678
0.184,-62.944255451699156,-3.8298264473543613,19.120283768168584,-0.19584677692011623,0.5516832506278311,0.7865700015437624,30.06551170349121,11.350170135498047,-2.421053579837462e-07,-11.5217205623293,34.23915386517606,36.658934166289605,0.961044192314148,0.2580999433994293,0.09550290554761887,-0.02564845234155655
0.1845,-63.31288781438966,-4.040836942884535,19.19542362135649,-0.19569222853945156,0.5505447255654314,0.7868319562228169,30.05841064453125,11.344595909118652,-4.6149310151122336e-08,-11.517990080752645,34.17699452726199,36.5970496186365,0.9610648155212402,0.258041650056839,0.09545774012804031,-0.025629980489611626
0.185,-63.68308254310338,-4.252309002383127,19.271934511766275,-0.19553219116582407,0.5494015524540233,0.7870941031938096,30.050840377807617,11.338912010192871,5.8777377631713534e-08,-11.513956461323245,34.11458716535327,36.53481241629401,0.9610865116119385,0.25797945261001587,0.0954117625951767,-0.02561088278889656
0.1855,-64.05484491797085,-4.46421112357594,19.34980407876096,-0.19536652835400958,0.5482537987133159,0.7873564106713692,30.042821884155273,11.333124160766602,7.541090951690421e-08,-11.509611100529433,34.05193612131911,36.47222330073525,0.9611095190048218,0.2579134702682495,0.0953650027513504,-0.02559117041528225
0.186,-64.42817934944873,-4.676511805070312,19.42901884408328,-0.19519511026158776,0.5471015328825376,0.7876188495687139,30.034324645996094,11.327220916748047,8.315592481267231e-08,-11.504945722381775,33.989045648967874,36.409283059053465,0.9611334204673767,0.2578435242176056,0.09531739354133606,-0.02557082287967205
0.1865,-64.80308935963484,-4.889179557506051,19.509564219969125,-0.1950178138148503,0.5459448245764227,0.7878813934301386,30.025365829467773,11.321208000183105,1.4808901482865622e-07,-11.499952389558448,33.92591991397421,36.34599252927863,0.9611585736274719,0.25776973366737366,0.09526896476745605,-0.02554984763264656
0.187,-65.17957756440022,-5.10218291429927,19.591424518441762,-0.19483452286481026,0.5447837444409374,0.7881440183595252,30.015947341918945,11.315083503723145,-1.243850622500986e-08,-11.49462351408519,33.86256299401583,36.282352605702556,0.9611848592758179,0.2576920986175537,0.0952196940779686,-0.02552824467420578
