Time,Gyro_X,Gyro_Y,Gyro_Z,Acc_X,Acc_Y,Acc_Z,Euler_X,Euler_Y,Euler_Z,Tilt_X,Tilt_Y,Tilt_Z,Quat_W,Quat_X,Quat_Y,Quat_Z
0.0,52.873713788915666,17.16615193401588,0.9605849985880297,-0.06640930997797945,0.9104771640856282,0.8581728068924972,0.2345813363790512,0.02376386523246765,-7.728549050733946e-11,-3.038278214029986,46.608537528424925,46.76978068150147,0.9999979734420776,0.002047106856480241,0.0002073784125968814,-4.2452731463527016e-07
0.0005,52.87203636767088,17.165771096025143,0.9618326854791888,-0.06640294934447624,0.9104746369437037,0.8581727624679314,0.4683241546154022,0.04743971303105354,-5.1130363831752845e-11,-3.0379922859767534,46.60847591671004,46.76968872534445,0.9999915957450867,0.004086887463927269,0.000413986126659438,-1.6919293557293713e-06
0.001,52.86530681748725,17.165120167473063,0.9686620668690291,-0.06639296526729412,0.9104647132274797,0.8581670440304909,0.7012254595756531,0.07102616876363754,-7.316368344501001e-11,-3.0375633651498695,46.608379214015166,46.769546506866234,0.999981164932251,0.00611930713057518,0.000619808561168611,-3.792870984398178e-06
0.0015,52.85352977583544,17.164199064163004,0.9810644671297636,-0.06637935085558898,0.9104473948209867,0.8581556637577141,0.9332823157310486,0.09452179819345474,-7.365068624420879e-12,-3.036991099596126,46.60824708705304,46.769353661781935,0.9999665021896362,0.008144332095980644,0.000824830902274698,-6.717921678500716e-06
0.002,52.83671115078499,17.163007929748755,0.99902881709776,-0.06636210360061574,0.9104226833780888,0.8581386356806043,1.1644922494888306,0.11792521178722382,-3.350833152615529e-11,-3.0362753283164063,46.60807911986305,46.76910976552272,0.9999478459358215,0.0101619316264987,0.0010290383361279964,-1.0457562893861905e-05
0.0025,52.81485812177344,17.161547135718116,1.0225416532576128,-0.06634122534905865,0.9103905803283688,0.8581159756909076,1.3948520421981812,0.14123497903347015,-1.1521876508435724e-10,-3.035416080044369,46.6078748137943,46.768814333078815,0.9999251961708069,0.012172072194516659,0.0012324160197749734,-1.5002179679868277e-05
0.003,52.78797913960269,17.159817281181137,1.051587119165355,-0.06631672227001009,0.9103510868850309,0.858087701547717,1.6243597269058228,0.16444960236549377,-3.1259431154673223e-10,-3.0344135717562155,46.607633587589575,46.76846681890076,0.9998985528945923,0.01417472306638956,0.0014349488774314523,-2.034206954704132e-05
0.0035,52.75608392566086,17.1578191924633,1.086146969105855,-0.06628860481566193,0.9103042040548153,0.8580538328833638,1.8530120849609375,0.18756768107414246,7.512286799571388e-12,-3.03326820691422,46.607354777571146,46.768066616860565,0.9998679757118225,0.016169853508472443,0.001636622124351561,-2.646743450895883e-05
0.004,52.71918347036649,17.15555392250427,1.1262005739762393,-0.06625688767577799,0.9102499326498972,0.8580143912085789,2.0808064937591553,0.21058772504329681,2.091862932873667e-10,-3.0319805734468512,46.607037637927675,46.76761306027272,0.9998334646224976,0.018157433718442917,0.0018374206265434623,-3.3368400181643665e-05
0.0045000000000000005,52.67729003083406,17.153022750063016,1.1717249293839807,-0.06622158972602936,0.9101882733017671,0.8579693999168712,2.3077409267425537,0.23350822925567627,-5.190826102285939e-10,-3.0305514414688317,46.60668134110392,46.76710542197717,0.999795138835907,0.02013743668794632,0.0020373291335999966,-4.1034996684174985e-05
0.005,52.630417127760026,17.150227178729335,1.2226946659451186,-0.06618273397028133,0.9101192264770699,0.857918884288093,2.533813238143921,0.2563278079032898,1.2037107421924986e-10,-3.02898176074478,46.60628497829304,46.76654291448506,0.9997531175613403,0.022109834477305412,0.002236333442851901,-4.9457172281108797e-05
0.0055,52.578579541529464,17.147168935743103,1.2790820617650103,-0.06614034747693032,0.9100427924953676,0.8578628714911509,2.7590200901031494,0.27904486656188965,7.330469564692521e-12,-3.0272726579004483,46.60584756003145,46.76592469018835,0.9997072219848633,0.024074595421552658,0.0024344176054000854,-5.862478428753093e-05
0.006,52.52179330754372,17.143849970621016,1.3408570570809033,-0.06609446130939907,0.9099589715488208,0.8578013905858198,2.9833600521087646,0.30165794491767883,-3.686959591797656e-12,-3.025425433385954,46.60536801689721,46.76524984163478,0.9996576905250549,0.026031699031591415,0.002631567185744643,-6.852762453490868e-05
0.006500000000000001,52.46007571077129,17.14027245359225,1.407987271042667,-0.06604511045090607,0.9098677637237413,0.8577344725236149,3.2068309783935547,0.32416561245918274,-4.958013444245069e-10,-3.023441558195729,46.604845200311445,46.76451740186938,0.9996045231819153,0.027981115505099297,0.002827767049893737,-7.915538299130276e-05
0.007,52.39344527952369,17.13643877384291,1.480438020605021,-0.06599233372363363,0.909769169023994,0.8576621501476781,3.4294300079345703,0.34656625986099243,3.4741873267130075e-10,-3.0213226703502243,46.604277883443224,46.76372634484387,0.9995477199554443,0.029922818765044212,0.0030230022966861725,-9.049767686519772e-05
0.0075,52.32192177845933,17.132351537570443,1.5581723415017126,-0.06593617370243009,0.9096631873962108,0.8575844581916302,3.651155471801758,0.3688585162162781,1.6134447944349262e-10,-3.019070571144885,46.60366476221789,46.762875585895344,0.9994873404502869,0.03185678645968437,0.0032172582577914,-0.00010254407970933244
0.008,52.24552620081931,17.12801356584855,1.6411510112692285,-0.0658766766231847,0.9095498187567781,0.8575014332773492,3.872004985809326,0.3910408020019531,-6.268366936623693e-10,-3.0166872211719555,46.60300445642833,46.761963982295235,0.9994234442710876,0.033782992511987686,0.0034105200320482254,-0.00011528404866112396
0.0085,52.164280759899675,17.12342789230325,1.729332574284822,-0.06581389228602882,0.9094290630205584,0.8574131139116068,4.091977119445801,0.4131116271018982,1.1563986435092488e-09,-3.0141747361214115,46.602295510950036,46.76099033387071,0.9993560314178467,0.03570141643285751,0.0036027729511260986,-0.0001287069753743708
0.009000000000000001,52.07820887976481,17.11859776060092,1.8226733687809684,-0.0657478739535177,0.909300920131301,0.8573195404815374,4.311069011688232,0.43506962060928345,-4.1474426670795594e-10,-3.011535382367175,46.60153639705856,46.759953383698885,0.9992852807044983,0.037612032145261765,0.0037940030451864004,-0.00014280223695095628
0.0095,51.98733518520846,17.113526621749404,1.9211275557958598,-0.06567867824396059,0.9091653900936961,0.8572207552488768,4.529280185699463,0.45691317319869995,1.0917405868227092e-09,-3.00877157234547,46.60072551384968,46.75885181887569,0.9992110133171082,0.03951481729745865,0.003984195180237293,-0.00015755904314573854
0.01,51.89168549096828,17.108218131212624,2.0246471500170644,-0.06560636502007036,0.9090224730070282,0.8571168023429171,4.746606826782227,0.47864091396331787,8.170354670600233e-11,-3.0058858597321816,46.59986118976219,46.75768427136098,0.9991335272789001,0.041409753262996674,0.004173335153609514,-0.00017296665464527905
0.0105,51.79128679020166,17.102676145839894,2.133182052473249,-0.06553099727311255,0.9088721691003684,0.8570077277521313,4.963048458099365,0.5002514123916626,1.032170238168817e-09,-3.00288093442655,46.59894168420224,46.75644931890067,0.9990527629852295,0.04329681769013405,0.004361409228295088,-0.00018901417206507176
0.011,51.6861672422305,17.096904720610823,2.246680085026496,-0.0654526410027405,0.9087144787692608,0.8568935793144234,5.178603649139404,0.5217430591583252,1.590629294945245e-10,-2.9997596173487038,46.59796518926905,46.755145486027345,0.9989687204360962,0.04517599195241928,0.0045484029687941074,-0.00020569073967635632
0.0115,51.57635615956303,17.090908105196842,2.3650870266157518,-0.06537136509270929,0.9085494026138448,0.85677440670594,5.3932695388793945,0.5431146025657654,-1.8336045182199e-10,-2.9965248550588544,46.59692983158139,46.753771245140854,0.998881459236145,0.04704725369811058,0.004734302870929241,-0.0002229853707831353
0.012,51.46188399420268,17.084690740340307,2.488346651199853,-0.06528724118266784,0.9083769414783484,0.8566502614284001,5.607045650482178,0.564364492893219,2.8276978536467823e-09,-2.9931797142062284,46.59583367420411,46.752325017669705,0.9987910389900208,0.04891059175133705,0.00491909496486187,-0.00024088704958558083
0.0125,51.34278232325292,17.07825725405271,2.61640076734671,-0.06520034353623393,0.9081970964919042,0.8565211967948949,5.819931507110596,0.5854915380477905,-1.0341385525691749e-09,-2.9897273758160074,46.59467471867398,46.75080517531468,0.9986975789070129,0.0507659837603569,0.005102766677737236,-0.0002593848039396107
0.013000000000000001,51.21908383382921,17.0716124576328,2.749189259413451,-0.06511074890556298,0.9080098691106113,0.8563872679141068,6.031921863555908,0.6064939498901367,-2.9617583940932946e-09,-2.9861711294228495,46.59345090712373,46.7492100413754,0.998600959777832,0.05261341109871864,0.005285303108394146,-0.00027846742887049913
0.0135,51.09082230728797,17.064761341506394,2.886650130260649,-0.06501853639262699,0.9078152611607907,0.8562485316728904,6.243018627166748,0.6273706555366516,2.8606239599326955e-09,-2.9825143670597614,46.59216012450409,46.74753789216148,0.9985013008117676,0.05445285513997078,0.00546669214963913,-0.00029812377761118114
0.014,50.95803260278543,17.05770907088914,3.0287195454422267,-0.06492378730742372,0.9076132748833594,0.8561050467171918,6.453219890594482,0.6481204032897949,-1.9438755050060763e-09,-2.9787605771112435,46.59080020090166,46.74578695848823,0.9983987808227539,0.056284308433532715,0.00564692122861743,-0.00031834281980991364
0.0145,50.82075064017726,17.050460981273993,3.1753318788111993,-0.06482658502334251,0.9074039129792597,0.8559568734312331,6.662524223327637,0.6687416434288025,1.4167258477471023e-09,-2.974913338039939,46.58936891395274,46.74395542725877,0.9982932806015015,0.05810775235295296,0.005825977772474289,-0.00033911323407664895
0.015,50.67901338227235,17.04302257374516,3.326419759480103,-0.0647270148299166,0.9071871786558677,0.8558040739149403,6.8709306716918945,0.6892331838607788,3.6091378774472105e-09,-2.970976311996127,46.58786399135085,46.74204144313234,0.9981849193572998,0.059923168271780014,0.006003848742693663,-0.00036042381543666124
0.0155,50.53285881645327,17.035399510120477,3.481914120073786,-0.06462516378319498,0.9069630756743096,0.8556467119595664,7.078435897827148,0.7095935940742493,-1.13887295427606e-10,-2.9669532383195665,46.586283113447074,46.74004311027986,0.9980736970901489,0.06173054128885269,0.006180522497743368,-0.00038226335891522467
0.016,50.38232593567746,17.027597607924452,3.64174424621122,-0.06452112055397292,0.9067316083976196,0.8554848530214592,7.285039901733398,0.7298217415809631,-1.3747472604741517e-10,-2.962847926943445,46.58462391594223,46.73795849422757,0.9979596734046936,0.0635298639535904,0.0063559869304299355,-0.00040462054312229156
0.0165,50.22745471887318,17.019622835194113,3.8058378271520357,-0.0644149752741202,0.9064927818396554,0.8553185641939655,7.490742206573486,0.7499163150787354,2.555491818156952e-09,-2.9586642517102026,46.582883992668336,46.73578562378803,0.9978428483009338,0.06532111763954163,0.006530230864882469,-0.00042748410487547517
0.017,50.068286110744545,17.01148130512027,3.974121007542768,-0.06430681938125138,0.906246601714694,0.8551479141774039,7.695544719696045,0.7698763012886047,1.721414677469113e-09,-2.9544061436092623,46.58106089845865,46.73352249307988,0.9977234601974487,0.06710430234670639,0.006703243125230074,-0.0004508428100962192
0.0175,49.904862001000815,17.003179270526754,4.146518440197184,-0.0641967454619834,0.9059930744876326,0.8549729732471014,7.899439334869385,0.7897002100944519,-1.9291697128664964e-09,-2.9500775839466984,46.579152152104065,46.73116706363551,0.9976012706756592,0.0688793882727623,0.00687501160427928,-0.00047468525008298457
0.018000000000000002,49.73722520302555,16.994723118190507,4.322953339844327,-0.0640848470940287,0.9057322074247236,0.8547938132194547,8.102429389953613,0.8093869090080261,-8.621075409109835e-09,-2.945682597457057,46.57715523939426,46.72871726659726,0.9974764585494995,0.07064636796712875,0.007045526057481766,-0.0004990001325495541
0.0185,49.56541943200142,16.98611936300546,4.50334753777788,-0.063971218687373,0.9054640086447439,0.8546105074159963,8.30451488494873,0.8289356231689453,-3.420256966535362e-09,-2.9412252453675953,46.57506761624133,46.7261710050011,0.9973491430282593,0.07240524142980576,0.007214777171611786,-0.0005237761652097106
0.019,49.389489282506545,16.977374641993656,4.687621537339836,-0.06385595532478806,0.9051884871705359,0.854423130625443,8.505693435668945,0.8483449220657349,-4.674195253073776e-09,-2.936709618425274,46.572886711884166,46.72352615614813,0.9972192645072937,0.07415600121021271,0.007382753770798445,-0.0005490021430887282
0.0195,49.20948020559982,16.968495708166806,4.8756945701714764,-0.06373915260193115,0.9049056529808288,0.8542317590637086,8.705964088439941,0.8676137924194336,2.1908150849014874e-09,-2.932139829896911,46.57060993217122,46.7207805740629,0.9970868825912476,0.07589862495660782,0.007549446076154709,-0.0005746666574850678
0.02,49.02543848541157,16.959489424242097,5.06748465316468,-0.06362090646728284,0.9046155170622603,0.8540364703318745,8.905326843261719,0.8867411613464355,-4.7378918566209904e-09,-2.9275200085529445,46.568234662919295,46.717932092037785,0.9969519972801208,0.07763310521841049,0.007714844308793545,-0.0006007584743201733
0.0205,48.83741121525717,16.950362756216204,5.26290864604654,-0.06350131306217492,0.9043180914615107,0.8538373433721062,9.103777885437012,0.9057260155677795,-4.935628350466459e-09,-2.9228542916452755,46.565758273345814,46.71497852526228,0.9968146681785583,0.07935943454504013,0.007878939621150494,-0.0006272663013078272
0.021,48.64544627329136,16.941122766801442,5.46188230953074,-0.0633804685611602,0.9040133893374763,0.8536344584215055,9.301323890686035,0.9245678782463074,1.3880745441952058e-09,-2.9181468178897014,46.56317811957257,46.711917673536796,0.9966751337051392,0.08107762038707733,0.008041725493967533,-0.0006541790207847953
0.021500000000000002,48.44959229772106,16.93177660872866,5.66432036396935,-0.06325846901297456,0.9037014250133873,0.8534278969639191,9.49795913696289,0.9432651996612549,5.4976752039692656e-09,-2.913401720463403,46.56049154819726,46.708747324068376,0.9965332746505737,0.0827876478433609,0.008203189820051193,-0.0006814852822571993
0.022,48.24989866159501,16.922331517921464,5.8701365484393735,-0.06313541018234312,0.9033822140287908,0.8532177416796759,9.693680763244629,0.9618169665336609,1.3197502812811734e-10,-2.908623120028096,46.55769589993126,46.705465254348155,0.9963889718055725,0.08448949456214905,0.008363325148820877,-0.0007091739680618048
0.0225,48.046415447189005,16.912794806546408,6.079243680198982,-0.06301138739287669,0.9030557731913155,0.8530040763933042,9.888492584228516,0.9802228212356567,4.231901939988347e-09,-2.9038151177891827,46.554788513299236,46.70206923510745,0.9962425231933594,0.08618317544460297,0.008522125892341137,-0.0007372339605353773
0.023,47.83919342000472,16.903173855944615,6.2915537144488685,-0.06288649537130793,0.9027221206281327,0.8527869860192053,10.082396507263184,0.9984820485115051,3.948781301943427e-10,-2.8989817886014864,46.551766728398896,46.69855703335167,0.9960939884185791,0.08786869794130325,0.008679583668708801,-0.000765654374845326
0.0235,47.62828400240242,16.893476109450127,6.506977804335067,-0.06276082809330949,0.9023812758370348,0.8525665565053325,10.275386810302734,1.0165929794311523,-1.6913661582407258e-09,-2.894127174131834,46.54862789071678,46.69492641546919,0.9959431886672974,0.08954602479934692,0.008835689164698124,-0.00079442368587479
0.024,47.41373924688552,16.88370906510032,6.725426361130358,-0.0626344786311369,0.9020332597370334,0.8523428747748815,10.467464447021484,1.0345553159713745,1.9790282745901777e-09,-2.8892552760888703,46.545369354996964,46.69117515041295,0.9957902431488037,0.09121516346931458,0.008990437723696232,-0.0008235310669988394
0.0245,47.19561180905747,16.873880268245035,6.946809114532251,-0.06250753900333374,0.9016780947184176,0.8521160286660345,10.658632278442383,1.0523687601089478,-4.7200643393807695e-09,-2.884370049530234,46.54198848915946,46.68730101295244,0.9956353902816772,0.0928761288523674,0.009143822826445103,-0.0008529657498002052
0.025,46.97395492027009,16.86399730405969,7.171035173016706,-0.062380100026734095,0.9013158046921602,0.8518861068697944,10.848883628845215,1.070031762123108,-7.427952919414338e-09,-2.8794753962572583,46.53848267826392,46.68330178699245,0.9954783320426941,0.09452888369560242,0.00929583702236414,-0.0008827165002003312
0.025500000000000002,46.74882235998358,16.85406778996958,7.398013084187722,-0.06225225117099352,0.9009464151386193,0.8516531988659356,11.038222312927246,1.0875442028045654,2.732932102844643e-09,-2.874575158307152,46.53484932851607,46.679175268956904,0.9953193068504333,0.09617344290018082,0.00944647565484047,-0.0009127724915742874
0.026000000000000002,46.52026842785801,16.844099367991554,7.627650895064295,-0.06212408041587391,0.9005699531554323,0.8514173948571391,11.22665023803711,1.104905605316162,3.987789209958237e-09,-2.869673111552491,46.53108587131176,46.6749192712331,0.9951584339141846,0.0978098139166832,0.009595734067261219,-0.0009431231301277876
0.0265,46.288347915596695,16.8340996970003,7.859856212247269,-0.061995674111504535,0.9001864475045294,0.8511787857013448,11.414162635803223,1.122114658355713,5.602684538530411e-09,-2.864772959417728,46.52718976731541,46.67053162567386,0.9949955344200134,0.09943797439336777,0.009743605740368366,-0.0009737575310282409
0.027,46.05311607856156,16.824076444926394,8.094536261910251,-0.061867116841836635,0.8997959286581857,0.8509374628423976,11.600767135620117,1.1391717195510864,-1.5809320075277355e-08,-2.8598783267222716,46.523158510567875,46.66601018715317,0.9948309659957886,0.10105796158313751,0.009890087880194187,-0.0010046653915196657
0.0275,45.81462860718143,16.814037280893157,8.331597949559892,-0.061738491291500594,0.8993984288440392,0.8506935182390307,11.786452293395996,1.1560754776000977,-1.773032565210997e-08,-2.8549927536594013,46.518989632620425,46.661352837172274,0.9946643114089966,0.10266971588134766,0.01003517396748066,-0.0010358354775235057
0.028,45.572941598173195,16.8039898673007,8.57094791951241,-0.061609878116273595,0.8989939820889832,0.8504470442922712,11.971229553222656,1.1728262901306152,-1.3165705192719201e-09,-2.8501196899202705,46.51468070668923,46.65655748751112,0.9944961071014404,0.10427329689264297,0.010178864002227783,-0.0010672578355297446
0.0285,45.32811152559733,16.79394185186456,8.81249261403488,-0.061481355817354005,0.8985826242618722,0.8501981337713274,12.1550874710083,1.1894227266311646,-9.884837837148552e-09,-2.845262488971825,46.51022935182671,46.65162208392188,0.9943259358406067,0.10586865246295929,0.010321148671209812,-0.0010989215224981308
0.029,45.08019521176826,16.783900859617127,9.056138332100991,-0.061353000619637145,0.8981643931149578,0.8499468797380542,12.33803939819336,1.205865502357483,-9.539159684379683e-09,-2.8404244024974004,46.505633237104185,46.646544609858985,0.9941542744636536,0.10745583474636078,0.01046203076839447,-0.0011308167595416307
0.029500000000000002,44.82924979804044,16.77387448488041,9.301791287713069,-0.06122488635417614,0.8977393283239788,0.8496933754700665,12.520073890686035,1.2221530675888062,3.294927664043712e-09,-2.8356085750084237,46.500890085801394,46.64132309024164,0.9939807653427124,0.10903481394052505,0.01060150284320116,-0.0011629328364506364
0.03,44.57533271549159,16.76387028321863,9.549357667743507,-0.06109708434500778,0.8973074715268464,0.8494377143825942,12.701199531555176,1.238286018371582,1.4343944698680389e-08,-2.830818038635467,46.49599767959793,46.63595559524401,0.9938057065010071,0.11060561239719391,0.010739564895629883,-0.0011952598579227924
0.0305,44.31850165552345,16.753895763379337,9.79874368925047,-0.060969663300513656,0.8968688663608403,0.8491799899491816,12.88140869140625,1.2542632818222046,4.498419414744603e-09,-2.826055708106565,46.49095386276096,46.63044024410739,0.9936289191246033,0.11216820031404495,0.010876213200390339,-0.0012277875794097781
0.031,44.05881454040185,16.743958379232097,10.049855656224782,-0.060842689209480404,0.8964235584982574,0.848920295621317,13.060710906982422,1.2700852155685425,-5.251405976736123e-09,-2.821324375920512,46.4857565463246,46.62477520896972,0.9934507012367249,0.11372261494398117,0.011011446826159954,-0.0012605059891939163
0.0315,43.79632949375626,16.734065521713745,10.302600015726114,-0.060716225242016024,0.8959715956804387,0.8486587247471092,13.239102363586426,1.2857517004013062,-8.011404872831918e-09,-2.8166267077225715,46.480403712254805,46.618958718706594,0.9932710528373718,0.11526885628700256,0.011145265772938728,-0.0012934053083881736
0.032,43.531104811060864,16.72422451078956,10.5568834133689,-0.06059033165546723,0.8955130277501149,0.8483953704891098,13.416579246520996,1.3012616634368896,1.1589775361642296e-08,-2.811965237889588,46.47489341759497,46.61298906277842,0.9930897355079651,0.11680689454078674,0.011277664452791214,-0.0013264751760289073
0.0325,43.26319893011736,16.71444258743976,10.812612748119822,-0.06046506570548087,0.89504790668201,0.8481303257414013,13.593149185180664,1.3166160583496094,-2.3046609065602297e-09,-2.807342365331455,46.469223798586185,46.60686459507813,0.9929071664810181,0.11833678185939789,0.011408647522330284,-0.0013597068609669805
0.033,42.99267040156113,16.704726905680666,11.06969522637056,-0.0603404815623361,0.8945762866116305,0.8478636830460645,13.768806457519531,1.3318136930465698,2.725334402597923e-10,-2.8027603495152564,46.463393074756354,46.60058373777296,0.9927230477333069,0.11985848844051361,0.011538210324943066,-0.0013930898858234286
0.0335,42.719577859411366,16.69508452463042,11.328038415251504,-0.06021663023267306,0.8940982238622023,0.8475955345091448,13.943553924560547,1.3468550443649292,-3.6581035978144882e-09,-2.7982213067183555,46.4573995529729,46.59414498513533,0.9925375580787659,0.1213720291852951,0.011666354723274708,-0.0014266151702031493
0.034,42.44397999168638,16.68552240062891,11.587550295153541,-0.06009355948672801,0.893613776969672,0.8473259717162452,14.117392539978027,1.3617401123046875,-7.667103396613584e-09,-2.7937272065161594,46.451241631452355,46.58754690735557,0.9923507571220398,0.12287740409374237,0.011793079786002636,-0.0014602730516344309
0.0345,42.16593551110491,16.67604737942133,11.848139311427184,-0.0599713137911798,0.8931230067057485,0.8470550856478694,14.29032039642334,1.3764688968658447,3.782724355971823e-09,-2.78927986851,46.444917803721616,46.580788154331415,0.9921626448631287,0.1243746280670166,0.011918387375772,-0.0014940544497221708
0.035,41.88550312589461,16.666666188416013,12.109714425229898,-0.05984993424770244,0.892625976098906,0.8467829665946552,14.4623441696167,1.3910409212112427,-4.911808737517731e-09,-2.784880959300283,46.43842666252402,46.57386745942675,0.9919732809066772,0.125863716006279,0.012042277492582798,-0.0015279502840712667
0.035500000000000004,41.60274151072778,16.657385429025457,12.372185163494207,-0.059729458537306976,0.8921227504533159,0.8465097040726203,14.633462905883789,1.4054571390151978,9.098666708950987e-09,-2.780531989709537,46.43176690366471,46.566783643194285,0.9917827248573303,0.12734468281269073,0.012164752930402756,-0.0015619514742866158
0.036000000000000004,41.317709277806195,16.648211569101328,12.63546166799117,-0.059609920870548526,0.8916133973656559,0.8462353867385666,14.803675651550293,1.4197168350219727,4.639124195904287e-09,-2.7762343122597137,46.424937329788634,46.55953561705496,0.9915909767150879,0.12881751358509064,0.012285812757909298,-0.0015960490563884377
0.0365,41.0304649481147,16.63915093547277,12.899454743465231,-0.05949135194366268,0.8910979867397502,0.8459601023057791,14.972981452941895,1.433820366859436,6.434067945093602e-09,-2.7719891189076606,46.41793685408526,46.552122386927806,0.99139803647995,0.1302822232246399,0.012405458837747574,-0.0016302339499816298
0.037,40.74106692286482,16.630209706598052,13.16407590481826,-0.05937377890068769,0.8905765907989952,0.8456839374601623,15.141383171081543,1.447767972946167,1.4466717601635537e-08,-2.767797439042342,46.410764503913036,46.54454305680343,0.9912039637565613,0.1317388266324997,0.012523694895207882,-0.0016644977731630206
0.0375,40.44957345514816,16.62139390533972,13.429237423322295,-0.05925722530161666,0.8900492840965445,0.8454069777769563,15.308877944946289,1.461559534072876,-3.0616037483000014e-10,-2.7636601377468915,46.40341942433813,46.536796832254865,0.9910088181495667,0.13318730890750885,0.012640520930290222,-0.0016988314455375075
0.038,40.15604262182059,16.61270939187246,13.694852371842005,-0.05914171109661552,0.8895161435231991,0.8451293076381687,15.475473403930664,1.4751954078674316,1.0799106497927369e-08,-2.7595779143282844,46.395900881580545,46.52888302387895,0.9908125996589661,0.13462769985198975,0.012755940668284893,-0.001733226701617241
0.0385,39.86053229563662,16.604161856733928,13.960834669049484,-0.05902725260633227,0.8889772483129844,0.8448510101508857,15.641169548034668,1.4886761903762817,-6.809579122801779e-09,-2.7555513011169004,46.38820826636129,46.52080105066145,0.9906154870986938,0.13606002926826477,0.012869957834482193,-0.0017676756251603365
0.039,39.56310011765433,16.5957568140278,14.227099122615579,-0.058913862508312556,0.888432680046373,0.8445721670665963,15.805959701538086,1.502001166343689,3.7610575764901455e-10,-2.751580662537899,46.38034109714415,46.51255044325931,0.9904172420501709,0.13748426735401154,0.012982571497559547,-0.0018021691357716918
0.0395,39.26380346993068,16.587499594788763,14.493561471363355,-0.05880154982952633,0.8878825226511333,0.8442928587016685,15.969855308532715,1.515171766281128,-8.926649641693984e-09,-2.747666194455875,46.37229902326652,46.504130847194084,0.9902181625366211,0.13890045881271362,0.013093790039420128,-0.00183669978287071
0.04,38.96269944852658,16.579395340518587,14.760138426370816,-0.05869031994500164,0.8873268624007681,0.8440131638591469,16.132850646972656,1.5281871557235718,-2.0190368488215427e-08,-2.7438079237938475,46.36408182795157,46.49554202594869,0.9900180697441101,0.14030858874320984,0.01320361252874136,-0.0018712591845542192
0.0405,38.65984483684125,16.571448996902596,15.026747711011327,-0.058580174582549105,0.8867657879105358,0.8437331597519876,16.294946670532227,1.541048288345337,-1.2981389296840007e-09,-2.740005708427171,46.355689431197305,46.48678386396253,0.9898170828819275,0.14170868694782257,0.01331204455345869,-0.0019058394245803356
0.041,38.35529607929477,16.563665307715524,15.293308099921497,-0.05847111183355373,0.8861993901310281,0.8434529219279071,16.45615005493164,1.553755521774292,-1.5546460119253425e-08,-2.7362592373525696,46.3471218925348,46.4778563695174,0.989615261554718,0.143100768327713,0.013419090770184994,-0.001940433168783784
0.0415,38.04910925537856,16.556048808925464,15.559739456887653,-0.058363126169797226,0.8856277623392794,0.8431725241959623,16.616458892822266,1.5663093328475952,4.614848059247834e-09,-2.7325680311320246,46.33837941365028,46.468759677508196,0.9894126653671265,0.14448483288288116,0.013524754904210567,-0.0019750322680920362
0.042,37.74134005409132,16.54860382300452,15.825962771643246,-0.058256208466267036,0.8850510001274188,0.842892038555019,16.7758731842041,1.5787097215652466,6.856091694373845e-09,-2.728931442610794,46.329462340865376,46.459494052092694,0.9892092347145081,0.14586089551448822,0.01362904068082571,-0.0020096295047551394
0.0425,37.43204374878,16.541334453454468,16.091900195570453,-0.058150346029896265,0.8844692013888266,0.8426115351242462,16.934396743774414,1.5909574031829834,4.600817060662621e-09,-2.7253486579084405,46.320371167468714,46.45005988921342,0.9890050292015076,0.14722898602485657,0.013731952756643295,-0.00204421766102314
0.043000000000000003,37.12127517240303,16.53424457955534,16.357475076300783,-0.058045522634170496,0.8838824663018197,0.8423310820757722,17.092025756835938,1.6030524969100952,-1.7939562724222924e-08,-2.7218186976812557,46.311106535894346,46.44045771898655,0.9888001084327698,0.148589089512825,0.013833495788276196,-0.002078788820654154
0.043500000000000004,36.809088693234635,16.52733785134501,16.62261199121018,-0.05794171855952675,0.8832908973108419,0.8420507455696382,17.248767852783203,1.6149955987930298,-8.90554385790665e-09,-2.7183404186540736,46.301669239740605,46.43068820795171,0.9885944724082947,0.14994123578071594,0.013933674432337284,-0.002113336231559515
0.044,36.49553819102673,16.520617684836783,16.88723677980522,-0.05783891063946212,0.8826945991051632,0.8417705896911896,17.404621124267578,1.6267874240875244,-1.2143308580903067e-08,-2.7149125154190505,46.29206022562404,46.42075216117648,0.988388180732727,0.15128545463085175,0.014032495208084583,-0.002147852908819914
0.0445,36.18067703364669,16.514087257482537,17.151276574998015,-0.05773707231225836,0.882093678595106,0.8414906763910227,17.559593200683594,1.6384282112121582,-7.955172520723863e-09,-2.7115335224984634,46.28228059486375,46.4106505242114,0.9881813526153564,0.15262176096439362,0.014129961840808392,-0.002182331867516041
0.045,35.8645580542071,16.50774950388807,17.41465983326831,-0.057636173678221984,0.8814882448857855,0.8412110654276184,17.71367835998535,1.6499183177947998,-1.0234032288281014e-08,-2.70820181666832,46.27233160499065,46.40038438488909,0.9879738092422485,0.15395013988018036,0.014226078055799007,-0.002216766122728586
0.0455,35.547233528704574,16.501607111787024,17.67731636371195,-0.05753618156232847,0.8808784092483918,0.8409318143127917,17.86687660217285,1.6612582206726074,4.119560870208261e-08,-2.704915619538933,46.26221467107667,46.389954974962954,0.9877656102180481,0.15527062118053436,0.014320852234959602,-0.0022511486895382404
0.046,35.22875515418365,16.495662518279754,17.93917735597582,-0.05743705958215191,0.8802642850890162,0.8406529782600602,18.019189834594727,1.6724486351013184,4.41446079690877e-09,-2.7016730003884093,46.251931366879845,46.379363671580684,0.9875568747520447,0.15658321976661682,0.014414288103580475,-0.002285473980009556
0.0465,34.90917402744136,16.48991790634251,18.200175407079943,-0.05733876822095266,0.8796459879150454,0.8403746101360597,18.170631408691406,1.683490514755249,2.6652026363649384e-08,-2.6984718792444182,46.24148342580035,46.36861199858765,0.9873477220535278,0.15788798034191132,0.014506394043564796,-0.0023197350092232227
0.047,34.58854062428838,16.484375201612597,18.46024454712817,-0.057241264905786945,0.8790236352991443,0.8400967604151005,18.32119369506836,1.6943840980529785,8.250192529146716e-09,-2.6953100302092947,46.23087274164399,46.35770162765653,0.9871380925178528,0.15918488800525665,0.01459717471152544,-0.0023539254907518625
0.0475,34.26690477938133,16.47903606945415,18.719320263909495,-0.05714450409049541,0.8783973468408333,0.839819477136979,18.47088050842285,1.705129623413086,-6.6561836042922096e-09,-2.692185085023134,46.22010136918829,46.34663437923785,0.9869279861450195,0.16047397255897522,0.014686633832752705,-0.002388038905337453
0.048,33.944315666641,16.473901912309206,18.97733952639242,-0.05704843734341872,0.8777672441257227,0.8395428058681379,18.61968994140625,1.7157280445098877,2.647968422309077e-08,-2.689094536859031,46.20917152454892,46.33541222332919,0.9867174029350281,0.1617552489042282,0.014774779789149761,-0.0024220694322139025
0.0485,33.62082178027041,16.46897386733804,19.234240807115366,-0.05695301343968207,0.8771334506823941,0.8392667896662606,18.76762580871582,1.7261797189712524,2.80641181404917e-08,-2.6860357443444087,46.1980855853421,46.32403728005831,0.9865064024925232,0.163028746843338,0.014861618168652058,-0.00245601125061512
0.049,33.29647091638657,16.464252804352284,19.489964103476677,-0.05685817845788249,0.8764960919369854,0.8389914690483922,18.914695739746094,1.7364853620529175,2.30237962028923e-08,-2.6830059358018437,46.186846090640564,46.31251182007752,0.9862950444221497,0.16429446637630463,0.014947154559195042,-0.0024898580741137266
0.0495,32.971310155278815,16.45973932404406,19.744450957927825,-0.05676387588100599,0.8758552951655103,0.8387168819626649,19.060890197753906,1.746645450592041,1.694558626752496e-08,-2.6800022137024877,46.17545574072027,46.300838264766185,0.9860832691192627,0.16555243730545044,0.015031395480036736,-0.002523604314774275
0.05,32.64538584430652,16.455433756513823,19.997644477074104,-0.05667004670139607,0.8752111894439466,0.8384430637636936,19.206222534179688,1.7566604614257812,3.420576888402138e-08,-2.6770215593248885,46.16391739659563,46.289019186238974,0.9858711361885071,0.16680268943309784,0.015114346519112587,-0.002557244384661317
0.0505,32.31874358144812,16.45133616009892,20.249489349687163,-0.05657662952958856,0.874563905596137,0.8381700471917154,19.350688934326172,1.7665315866470337,-1.7796097040445602e-08,-2.6740608376116013,46.1522340793412,46.277057307157136,0.9856588244438171,0.16804522275924683,0.015196016058325768,-0.002590772695839405
0.051000000000000004,31.991428199513052,16.447446320504827,20.499931863634036,-0.05648356070682083,0.8739135761395506,0.8378978623555196,19.49428939819336,1.7762585878372192,-3.451685604005661e-09,-2.67111680221565,46.140408969198454,46.26495550034153,0.9854460954666138,0.1692800521850586,0.015276407822966576,-0.0026241831947118044
0.051500000000000004,31.66348375102743,16.44376375024018,20.748919921727808,-0.056390774421020785,0.8732603352289482,0.8376265367192378,19.637033462524414,1.7858428955078125,-2.487405481588212e-08,-2.668186100728668,46.12844540446595,46.25271678818479,0.9852332472801208,0.17050723731517792,0.015355530194938183,-0.0026574714574962854
0.052000000000000005,31.33495349380423,16.44028768835652,20.996403056504796,-0.056298202826073236,0.8726043185980032,0.8373560950930153,19.778911590576172,1.795284390449524,-2.6897613025766987e-08,-2.665265280082169,46.11634688017262,46.24034434186245,0.9850200414657593,0.1717267483472824,0.015433387830853462,-0.0026906311977654696
0.0525,31.00587987720711,16.437017100492756,21.242332443933417,-0.05620577616415822,0.8719456634989275,0.8370865596276155,19.919940948486328,1.8045847415924072,1.783286407430751e-08,-2.6623507921131475,46.104117046533105,46.22784148034103,0.9848067760467529,0.17293865978717804,0.01550999004393816,-0.0027236579917371273
0.053,30.67630452911752,16.433950679224594,21.486660916060583,-0.05611342289095144,0.8712845086401725,0.8368179498129812,20.060110092163086,1.813743233680725,-2.0723591731552915e-08,-2.6594389992849345,46.09175970718562,46.21521166918347,0.9845932126045227,0.17414294183254242,0.01558533962816,-0.0027565464843064547
0.0535,30.346268243613615,16.431086844717868,21.729342972600367,-0.05602106980347232,0.8706209941222467,0.836550282480773,20.199434280395508,1.8227616548538208,2.620077133030918e-08,-2.656526180553986,46.07927881721225,46.20245851915096,0.9843795299530029,0.1753396838903427,0.015659447759389877,-0.002789292484521866
0.054,30.015810969368324,16.42842374568482,21.97033479147115,-0.05592864217036285,0.8699552613717185,0.8362835718108886,20.337907791137695,1.8316402435302734,6.707932431737618e-09,-2.653608537373063,46.066678480942755,46.18958578460175,0.9841657280921936,0.17652887105941772,0.01573231816291809,-0.0028218908701092005
0.0545,29.68497179877439,16.425959260641726,22.20959423828631,-0.05583606386437646,0.8692874530734735,0.8360178293419881,20.47553062438965,1.840379238128662,-1.8920573552350106e-08,-2.6506821998209933,46.053962949542566,46.17659736168723,0.9839518070220947,0.17771048843860626,0.015803957358002663,-0.002854336053133011
0.055,29.353788957802458,16.423690999465574,22.447080874804207,-0.05574325749685343,0.8686177131012874,0.8357530639860018,20.6123104095459,1.8489794731140137,-8.518544092339653e-09,-2.6477432328490385,46.041136618387064,46.16349728634618,0.9837378263473511,0.1788846105337143,0.01587437093257904,-0.0028866236098110676
0.0555,29.02229979659816,16.421616305247372,22.682755966343052,-0.055650144553959134,0.867946186446783,0.8354892820466104,20.74824333190918,1.8574421405792236,-1.4384423430158222e-08,-2.644787642633792,46.028204024223996,46.15028973209889,0.9835237264633179,0.18005123734474182,0.01594356819987297,-0.002918749349191785
0.056,28.69054078082316,16.419732256438877,22.916582488166185,-0.05555664553445577,0.8672730191468437,0.8352264872416952,20.883338928222656,1.865767240524292,9.975066994627468e-09,-2.6418113830261647,46.01516984212583,46.136979007641784,0.9833096265792847,0.18121041357517242,0.01601155288517475,-0.002950708381831646
0.0565,28.358547483744548,16.418035669289242,23.148525130843222,-0.05546268008878178,0.8665983582095692,0.8349646807296969,21.01759910583496,1.8739551305770874,3.829961769952206e-08,-2.6388103620861405,46.00203888223643,46.12356955424626,0.9830954670906067,0.1823621541261673,0.01607833243906498,-0.002982496749609709
0.057,28.02635457907637,16.416523100567545,23.37855030459272,-0.05536816715920674,0.8659223515388235,0.8347038611398859,21.15102195739746,1.882007122039795,-2.3543963223460196e-08,-2.635780448692582,45.98881608631313,46.11006594296194,0.9828813076019287,0.18350647389888763,0.016143912449479103,-0.0030141102615743876
0.0575,27.693995834575485,16.415190850566894,23.606626142611628,-0.0552730251208347,0.8652451478574859,0.8344440246064642,21.283613204956055,1.8899232149124146,-1.1752023354461016e-08,-2.6327174792175443,45.97550652407008,46.096472871629246,0.9826671481132507,0.18464341759681702,0.01620829850435257,-0.003045543795451522
0.058,27.36150410639457,16.41403496638509,23.832722503397083,-0.05517717192322247,0.8645668966294536,0.8341851648064633,21.415382385253906,1.8977049589157104,1.7476066815902414e-08,-2.6296172642541777,45.96211538932533,46.08279516170282,0.9824531674385071,0.18577302992343903,0.016271501779556274,-0.0030767940916121006
0.0585,27.02891133419277,16.413051245476595,24.056810972066078,-0.05508052523238553,0.8638877479805098,0.8339272730013765,21.546314239501953,1.9053517580032349,1.6476327857617434e-08,-2.626475595387482,45.9486479959573,46.06903775489043,0.9822391271591187,0.18689526617527008,0.016333522275090218,-0.0031078560277819633
0.059000000000000004,26.696248537004944,16.41223523947032,24.27886486067811,-0.05498300257296051,0.8632078526181068,0.8336703380824559,21.676429748535156,1.9128652811050415,1.345592703927423e-08,-2.6232882519969825,45.935109773674405,46.05520570960991,0.9820252656936646,0.18801021575927734,0.016394369304180145,-0.0031387265771627426
0.059500000000000004,26.363545809868704,16.41158225824676,24.498859207566323,-0.05488452147029641,0.8625273617501823,0.8334143466195869,21.805713653564453,1.920244812965393,2.1010359674278334e-08,-2.6200510080804227,45.92150626360449,46.04130419726991,0.9818114042282104,0.18911787867546082,0.016454046592116356,-0.0031694010831415653
0.06,26.030832321208397,16.411087374268586,24.71677077568256,-0.054784999592247634,0.8618464270030747,0.8331592829136811,21.93419075012207,1.9274919033050537,-4.244496309979695e-08,-2.6167596390875416,45.907843113708374,46.027338498377404,0.9815977811813354,0.19021829962730408,0.016512561589479446,-0.003199876518920064
0.0605,25.69813631097367,16.41074542715727,24.932578049961638,-0.05468435489044376,0.8611652003386319,0.8329051290524611,22.06184196472168,1.9346065521240234,-9.390978661372174e-09,-2.613409928753094,45.89412607402485,46.01331399847808,0.9813841581344604,0.19131147861480713,0.016569919884204865,-0.003230147995054722
0.061,25.365485089529805,16.41055102850899,25.1462612337101,-0.054582505740812706,0.860483833970612,0.8326518649695781,22.18868637084961,1.9415901899337769,-3.894455957720311e-08,-2.6099976759181405,45.88036099175256,45.999236183933874,0.9811708331108093,0.19239747524261475,0.016626128926873207,-0.003260212717577815
0.0615,25.032905037296175,16.410498566942344,25.357802244025283,-0.05447937108313826,0.859802480280449,0.8323994685069215,22.314720153808594,1.9484425783157349,-1.0968033592462234e-08,-2.6065187013289433,45.866553806176164,45.98511063754373,0.9809576272964478,0.19347630441188812,0.016681194305419922,-0.003290066495537758
0.062,24.70042160512809,16.410582213369715,25.567184706249567,-0.05437487055943326,0.8591212917324978,0.8321479154800289,22.439945220947266,1.9551647901535034,1.2650132052982599e-09,-2.6029688544026026,45.852710543443905,45.97094303401329,0.9807446002960205,0.19454798102378845,0.016735119745135307,-0.003319706069305539
0.0625,24.368059315436618,16.41079592648464,25.77439394746616,-0.05426892465091572,0.8584404207888403,0.8318971797464776,22.564369201660156,1.9617568254470825,2.963898637631246e-08,-2.5993440199488647,45.83883731120378,45.95673913527942,0.9805318117141724,0.1956125646829605,0.01678791269659996,-0.003349127946421504
0.063,24.03584176404005,16.411133458456547,25.97941698904142,-0.05416145481337678,0.8577600198237401,0.8316472332771092,22.687990188598633,1.9682191610336304,-5.466393560027427e-09,-2.5956401248375918,45.82494029310655,45.942504785696464,0.9803192615509033,0.1966700553894043,0.01683957688510418,-0.0033783286344259977
0.0635,23.703791622739875,16.411588360824343,26.182242538220176,-0.05405238361073602,0.8570802410378623,0.831398046229994,22.810819625854492,1.9745533466339111,-1.6448431949811493e-08,-2.5918531446014774,45.811025743183265,45.92824590709027,0.9801070690155029,0.19772052764892578,0.01689011976122856,-0.003407304873690009
0.064,23.371930642613236,16.41215399058007,26.382860978779387,-0.05394163484657958,0.8564012363723369,0.8311495870269592,22.932846069335938,1.980758547782898,-1.693243056877236e-08,-2.587979109963741,45.79709998010631,45.913968493687804,0.9798950552940369,0.19876393675804138,0.016939543187618256,-0.003436052007600665
0.0645,23.040279658012746,16.412823516433413,26.581264360746868,-0.05382913369348775,0.8557231574227653,0.8309018224325657,23.0540828704834,1.9868357181549072,5.235032407568951e-10,-2.5840141132808525,45.78316938134194,45.89967860692865,0.9796832799911499,0.19980037212371826,0.01698785461485386,-0.00346456840634346
0.065,22.708858591264182,16.41358992524802,26.77744638919104,-0.05371480681995636,0.8550461553532782,0.8306547176353668,23.174531936645508,1.9927852153778076,-1.4686086124982012e-08,-2.5799543148902524,45.76924037720428,45.88538237016702,0.9794718623161316,0.20082983374595642,0.01703505776822567,-0.0034928496461361647
0.0655,22.377686458051326,16.41444602864001,26.971402412088594,-0.05359858251472909,0.854370380810727,0.8304082363313193,23.2941951751709,1.9986077547073364,-4.055308622241682e-08,-2.575795949353563,45.75531944481848,45.871085963270446,0.9792606830596924,0.20185236632823944,0.017081158235669136,-0.0035208933986723423
0.066,22.04678137347631,16.415384469729283,27.163129407276735,-0.05348039080835734,0.8536959838391183,0.8301623408091626,23.4130802154541,2.0043039321899414,9.658516653132665e-09,-2.571535331585757,45.74141310200416,45.856795617124675,0.9790499210357666,0.2028680294752121,0.017126163467764854,-0.003548696404322982
0.0665,21.716160558783503,16.41639773003375,27.352625968497392,-0.05336016359181463,0.8530231137943768,0.829916992037621,23.53118324279785,2.009874105453491,-1.3165097900724732e-09,-2.5671688628611644,45.727527901087235,45.842517608051764,0.9788395166397095,0.2038768082857132,0.017170077189803123,-0.0035762558691203594
0.067,21.385840348733336,16.417478136496868,27.539892290540873,-0.05323783473199622,0.8523519192595538,0.8296721497542765,23.648509979248047,2.0153181552886963,-2.824124045730514e-08,-2.5626930366873064,45.713670422650694,45.828258252149894,0.9786293506622314,0.20487873256206512,0.017212899401783943,-0.003603567834943533
0.0675,21.055836199612592,16.418617868638346,27.724930153497,-0.05311334018394309,0.8516825479605505,0.8294277725559108,23.76506805419922,2.020637273788452,1.8620513131395455e-08,-2.55810444453804,45.69984726923408,45.814023899563686,0.9784197211265564,0.20587387681007385,0.01725464127957821,-0.003630629740655422
0.068,20.726162697866013,16.419808965818266,27.907742906121793,-0.05298661809963444,0.8510151466824792,0.8291838179901767,23.880859375,2.025831699371338,-2.9982108462611734e-10,-2.5533997814375318,45.68606505899165,45.79982092869338,0.97821044921875,0.20686225593090057,0.01729530468583107,-0.003657439723610878
0.0685,20.396833569333765,16.421043334604583,28.0883354483289,-0.05285760893320158,0.8503498611867414,0.8289402426484185,23.995878219604492,2.030900716781616,-1.2912542146636952e-08,-2.5485758513870893,45.672330419319174,45.785655740351345,0.9780014753341675,0.2078438699245453,0.017334889620542526,-0.003683993127197027
0.069,20.067861689078413,16.422312756233882,28.266714212814787,-0.052726255542422266,0.8496868361289213,0.8286970022594532,24.11014175415039,2.035846710205078,-3.799123504677482e-08,-2.5436295726271227,45.6586499804599,45.77153475187516,0.9777930378913879,0.20881879329681396,0.017373409122228622,-0.0037102887872606516
0.0695,19.73925909178421,16.42360889415543,28.4428871458276,-0.05259250328636332,0.8490262149775938,0.8284540517841562,24.22364616394043,2.040668487548828,-3.0674215167891816e-08,-2.5385579827268536,45.64503036909965,45.75746439120595,0.9775850176811218,0.2097870409488678,0.01741086132824421,-0.0037363229785114527
0.07,19.41103698271074,16.42492330164864,28.616863687090273,-0.05245630011904587,0.8483681399341331,0.8282113455106553,24.33639144897461,2.0453665256500244,2.863560277788224e-09,-2.5333582434947526,45.631478201961635,45.74345109094111,0.9773772954940796,0.21074864268302917,0.017447248101234436,-0.0037620924413204193
0.07050000000000001,19.083205749182337,16.42624742950397,28.78865474888846,-0.052317596679016254,0.8477127518536149,0.8279688371499722,24.448389053344727,2.0499422550201416,1.5983395940111222e-08,-2.5280276457030224,45.618000079410756,45.72950128237004,0.9771701693534851,0.21170365810394287,0.017482580617070198,-0.003787596244364977
0.07100000000000001,18.755774972593837,16.42757263375734,28.958272694335236,-0.05217634637471381,0.8470601901669061,0.8277264799319135,24.559640884399414,2.0543949604034424,7.228830867234137e-10,-2.5225636136198735,45.604602579078424,45.71562138950271,0.9769635200500488,0.2126520872116089,0.017516858875751495,-0.0038128308951854706
0.07150000000000001,18.428753440912708,16.42889018346839,29.125731314824307,-0.05203250546553329,0.846410592804018,0.8274842267010522,24.670148849487305,2.058725357055664,5.215029297289675e-09,-2.5169637093436026,45.591292249517124,45.701817823099205,0.9767573475837708,0.213593989610672,0.017550084739923477,-0.0038377931341528893
0.07200000000000001,18.10214916165681,16.430191268532873,29.291045806685013,-0.05188603313849039,0.8457640961188364,0.8272420300126035,24.779916763305664,2.0629336833953857,4.110382034738791e-10,-2.5112256369329766,45.578075603896345,45.688096974710575,0.9765516519546509,0.2145293802022934,0.01758226379752159,-0.00386248086579144
0.0725,17.775969375326483,16.431467007519785,29.45423274705186,-0.051736891580404766,0.845120834815278,0.826999842228033,24.888944625854492,2.0670201778411865,-1.6779766909280625e-08,-2.5053472463287823,45.56495911374818,45.6744652107387,0.9763464331626892,0.21545830368995667,0.017613397911190987,-0.0038868917617946863
0.073,17.450220569269025,16.43270845552343,29.615310068963847,-0.051585046045524795,0.8444809418749851,0.8267576156102027,24.997241973876953,2.0709850788116455,2.51249154814559e-09,-2.4993265370617674,45.55194920277436,45.66092886652555,0.9761417508125305,0.2163807898759842,0.01764349266886711,-0.003911023028194904
0.0735,17.12490849195312,16.43390661202181,29.774297035707423,-0.0514304649185268,0.8438445484866278,0.8265153024178956,25.104816436767578,2.0748298168182373,-2.2210729255789374e-08,-2.493161661742672,45.53905224072345,45.64749424048011,0.9759377241134644,0.21729689836502075,0.017672555521130562,-0.003934873733669519
0.074,16.80003816763025,16.435052428731673,29.931214214419505,-0.051273119772828606,0.8432117839768931,0.826272854999546,25.211658477783203,2.078552722930908,-2.140639843162262e-08,-2.486850929330359,45.52627453734818,45.63416758825186,0.9757341146469116,0.21820661425590515,0.01770058088004589,-0.003958438988775015
0.0745,16.47561391135932,16.43613681745179,30.086083448966495,-0.051112985424168464,0.8425827757432424,0.826030225885986,25.317777633666992,2.082155227661133,3.181704855137468e-08,-2.480392808174636,45.51362233645299,45.620955116960594,0.9755309820175171,0.21911001205444336,0.017727576196193695,-0.003981717862188816
0.075,16.15163934437076,16.437150657885603,30.23892783211705,-0.050950039979405476,0.8419576491885026,0.8257873678820674,25.42317771911621,2.085637331008911,2.218188827063372e-10,-2.4737859288305475,45.5011018100403,45.607862979490044,0.9753284454345703,0.22000710666179657,0.017753545194864273,-0.004004708491265774
0.0755,15.828117409745543,16.438084805434922,30.389771677025873,-0.05078426488050993,0.8413365276573741,0.8255442341569773,25.527875900268555,2.0890002250671387,1.3058700787382804e-08,-2.4670290866415745,45.48871905256527,45.594897268855014,0.9751265645027161,0.22089797258377075,0.017778495326638222,-0.004027409013360739
0.076,15.505050388384275,16.438930098956387,30.53864048804845,-0.050615644943717064,0.8407195323749144,0.8253007783330897,25.631858825683594,2.092243194580078,3.533069659056309e-08,-2.460121244089396,45.4764800753078,45.58206401265005,0.9749252796173096,0.2217826247215271,0.017802422866225243,-0.0040498157031834126
0.0765,15.182439915240847,16.43967736847309,30.685560930905254,-0.05044416839382904,0.8401067823870779,0.8250569545732009,25.735132217407227,2.0953662395477295,1.2265688908996708e-08,-2.453061532908439,45.46439080087055,45.569369167588476,0.9747244715690613,0.22266104817390442,0.017825329676270485,-0.004071926698088646
0.077,14.860286995795574,16.440317442833397,30.830560802217036,-0.05026982689365649,0.8394983945033484,0.8248127176659955,25.837705612182617,2.098370313644409,1.7396633467114953e-08,-2.445849255963779,45.45245705781075,45.55681861413892,0.9745243787765503,0.22353334724903107,0.017847225069999695,-0.004093740601092577
0.0775,14.53859202274124,16.44084115730962,30.9736689984318,-0.050092615568600264,0.8388944832415641,0.8245680231095933,25.939577102661133,2.101254940032959,7.304961258114417e-08,-2.438483888891377,45.44068457541494,45.54441815126891,0.9743247628211975,0.22439950704574585,0.017868105322122574,-0.004115253686904907
0.078,14.217354792856575,16.441239361129895,31.114915484166005,-0.049912533026382024,0.8382951607749523,0.8243228271930348,26.04075813293457,2.104020833969116,-1.0063748945299267e-08,-2.430965081500116,45.42907897862346,45.532173491301876,0.974125862121582,0.22525961697101593,0.01788797788321972,-0.004136466421186924
0.0785,13.896574524040426,16.441502924935868,31.25433125998266,-0.049729581371940335,0.8377005368814593,0.8240770870755673,26.14124298095703,2.1066675186157227,-2.620110173268131e-08,-2.4232926589354213,45.417645783112896,45.520090254896346,0.9739274978637695,0.22611366212368011,0.01790683902800083,-0.004157374147325754
0.079,13.576249872480382,16.441622748160235,31.39194832963029,-0.049543766217517514,0.8371107188954049,0.8238307608636085,26.241046905517578,2.109196662902832,-3.2303940855626934e-08,-2.415466622604748,45.40639039054287,45.5081739661535,0.9737298488616943,0.22696171700954437,0.017924699932336807,-0.004177976865321398
0.0795,13.25637894992904,16.441589766317627,31.52779966676706,-0.04935509668796968,0.8365258116615201,0.8235838076852476,26.340160369873047,2.1116063594818115,-3.2799810867345514e-08,-2.407487150865561,45.39531808397458,45.49643004786127,0.9735327363014221,0.2278037667274475,0.017941555008292198,-0.004198270849883556
0.08,12.9369593410615,16.441394958203265,31.661919181195714,-0.04916358542134103,0.8359459174914114,0.8233361877621764,26.4386043548584,2.1138992309570312,7.330317686182752e-08,-2.3993545994768675,45.384434023467286,45.484863816881195,0.9733363389968872,0.22863991558551788,0.0179574154317379,-0.004218255635350943
0.0805,12.6179881208872,16.44102935299359,31.794341684634983,-0.048969248564750545,0.8353711361224818,0.8230878624789332,26.536361694335938,2.1160731315612793,-8.582026822523403e-08,-2.3910695018157586,45.37374324185832,45.47348047968448,0.9731404781341553,0.2294701337814331,0.017972273752093315,-0.004237929359078407
0.081,12.299461872189474,16.440484037244065,31.925102856054504,-0.048772105765646716,0.8348015646793602,0.822838794449347,26.633460998535156,2.118130683898926,3.0990982224921026e-08,-2.3826325688607657,45.36325064073317,45.462285128044314,0.972945511341095,0.23029454052448273,0.017986144870519638,-0.004257289692759514
0.0815,11.981376702966367,16.43975016177879,32.054239206600805,-0.04857218015849347,0.8342372976378591,0.8225889475801005,26.729883193969727,2.1200695037841797,-1.745427979926717e-08,-2.374044688944255,45.35296098658969,45.45128273488916,0.9727509617805481,0.23111309111118317,0.017999015748500824,-0.004276334308087826
0.082,11.663728263845979,16.438818948467908,32.181788044142586,-0.048369498346957356,0.8336784267914944,0.8223382871312905,26.825653076171875,2.121892213821411,-6.269036845196752e-08,-2.365306927276453,45.342878907202305,45.44047815032399,0.9725573062896729,0.23192588984966278,0.018010903149843216,-0.004295063205063343
0.0825,11.346511765450163,16.437681696888323,32.30778743746403,-0.04816409038167325,0.8331250412205975,0.8220867797739382,26.920751571655273,2.1235971450805664,6.010713349269281e-08,-2.356420525244024,45.33300888818975,45.429876097823545,0.9723641276359558,0.232732892036438,0.018021799623966217,-0.004313471727073193
0.083,11.029721995680465,16.436329790863983,32.432276180135965,-0.047955989733672204,0.8325772272640276,0.8218343936443323,27.015207290649414,2.12518572807312,-3.3374732311131083e-08,-2.3473868994865486,45.32335526979079,45.41948117060357,0.9721718430519104,0.23353421688079834,0.018031714484095573,-0.004331562202423811
0.0835,10.713353336900175,16.43475470488225,32.55529375409479,-0.04774523326356152,0.832035068493518,0.821581098395164,27.10900115966797,2.1266567707061768,3.2491772827825116e-08,-2.338207640754497,45.31392224385132,45.4092978281741,0.9719800353050232,0.23432983458042145,0.018040642142295837,-0.004349328577518463
0.084,10.39739978298723,16.432948010383004,32.676880292960206,-0.04753186118655392,0.8314986456906549,0.8213268652433844,27.202150344848633,2.128011703491211,-1.659475934445709e-08,-2.328884512552714,45.304713851025426,45.3993303930789,0.9717890024185181,0.23511981964111328,0.018048591911792755,-0.004366772715002298
0.0845,10.081854956232556,16.430901381917895,32.79707654512282,-0.04731591703344738,0.8309680368265101,0.8210716670147169,27.294658660888672,2.1292502880096436,-2.692052802899525e-08,-2.3194194495736946,45.29573397819401,45.389583047825724,0.9715986847877502,0.23590420186519623,0.018055561929941177,-0.0043838913552463055
0.085,9.766712124059204,16.428606603177002,32.91592383663343,-0.04709744760766409,0.8304433170439259,0.820815478184797,27.386526107788086,2.130373001098633,-2.7061814122930627e-08,-2.3098145559252594,45.28698635610204,45.38005983200999,0.9714090824127197,0.23668301105499268,0.018061557784676552,-0.00440068356692791
0.0855,9.45196421553781,16.426055572880585,33.033464033926144,-0.04687650293846098,0.8299245586424457,0.8205582749168862,27.477760314941406,2.1313793659210205,5.820653115051755e-08,-2.3000721031575173,45.27847455721663,45.37076463963547,0.9712201952934265,0.2374563068151474,0.01806657947599888,-0.004417147487401962
0.08600000000000001,9.137603837674522,16.42324031053442,33.149739506408004,-0.046653136230430416,0.8294118310659105,0.8203000350961348,27.5683650970459,2.132270336151123,-1.1636762664579692e-08,-2.290194528094275,45.27020199380753,45.361701216634806,0.9710320234298706,0.2382241040468216,0.018070628866553307,-0.0044332826510071754
0.08650000000000001,8.823623291448147,16.42015296204669,33.26479308894818,-0.04642740380941394,0.8289052008926848,0.8200407383603736,27.658340454101562,2.1330454349517822,-2.4070500259654182e-08,-2.280184430474371,45.26217191624986,45.35287315859178,0.9708445072174072,0.23898644745349884,0.018073709681630135,-0.0044490871950984
0.08700000000000001,8.510014587573638,16.416785805205386,33.378668044299545,-0.04619936506495518,0.8284047318285253,0.8197803661274113,27.74769401550293,2.133704662322998,1.1061870530681972e-08,-2.2700445704085377,45.25438741155053,45.34428390866781,0.9706577062606812,0.23974338173866272,0.018075821921229362,-0.0044645587913692
0.08750000000000001,8.196769461969794,16.413131255015234,33.49140802548649,-0.04596908238942493,0.8279104847020606,0.8195189016188341,27.836435317993164,2.134249448776245,8.897513836814142e-09,-2.259777865657821,45.246851402097484,45.335936755733876,0.9704717397689819,0.24049495160579681,0.018076971173286438,-0.004479697905480862
0.088,7.8838793909097316,16.409181868893228,33.603057038192375,-0.04573662111395171,0.827422517462868,0.8192563298803149,27.924556732177734,2.1346793174743652,-2.674017673953699e-09,-2.2493873887395965,45.23956664463111,45.32783483270875,0.97028648853302,0.24124117195606232,0.01807715743780136,-0.004494502209126949
0.0885,7.5713356058332595,16.404930351722587,33.71365940318061,-0.04550204944129748,0.8269408851821265,0.8189926377984269,28.012069702148438,2.134993553161621,-2.2603517280117558e-08,-2.2388763638676066,45.2325357294376,45.31998111510502,0.9701018929481506,0.24198207259178162,0.01807638257741928,-0.004508970305323601
0.089,7.2591291078011535,16.400369560764855,33.82325971878285,-0.04526543837581988,0.8264656400558148,0.8187278141139905,28.098970413208008,2.135193109512329,4.895510130609182e-08,-2.228248163732525,45.22576107976185,45.312378419782505,0.9699180126190186,0.2427176982164383,0.018074650317430496,-0.004523100797086954
0.0895,6.947250681572219,16.395492510430135,33.931902823488834,-0.04502686165066533,0.8259968314104174,0.8184618494319696,28.185274124145508,2.1352789402008057,-3.181134644592021e-08,-2.2175063061297937,45.219244951438604,45.30502940390906,0.9697349667549133,0.24344810843467712,0.018071962520480156,-0.004536894615739584
0.09,6.635690909284542,16.39029237690598,34.03963375867098,-0.044786395652340286,0.8255345057111174,0.8181947362279535,28.27097511291504,2.1352500915527344,3.826122085826e-09,-2.206654450441582,45.21298943273925,45.29793656412871,0.9695525765419006,0.2441733032464981,0.01806832104921341,-0.004550348035991192
0.0905,6.3244401837235715,16.384762502645344,34.146497731478014,-0.044544119342809836,0.8250787065724141,0.8179264688512587,28.356088638305664,2.1351077556610107,-1.2224895762358301e-08,-2.1956963939799423,45.206996444431425,45.2911022359354,0.9693710207939148,0.24489335715770721,0.018063731491565704,-0.004563461989164352
0.091,6.0134887211601695,16.378896400714453,34.25254007793119,-0.044300114179273806,0.824629474771145,0.8176570435247023,28.440601348876953,2.1348512172698975,3.407553350598391e-08,-2.1846360681982353,45.201267740048614,45.28452859325174,0.9691901206970215,0.24560825526714325,0.01805819198489189,-0.004576234146952629
0.0915,5.702826573742922,16.37268775900146,34.35780622625596,-0.04405446403177375,0.8241868482618443,0.8173864583410956,28.5245361328125,2.13448166847229,-6.876881286643766e-09,-2.1734775347781623,45.19580490636555,45.27821764821044,0.9690101146697998,0.24631808698177338,0.01805170811712742,-0.004588664509356022
0.092,5.392443641429698,16.366130444287354,34.46234166048297,-0.04380725509878322,0.8237508621944023,0.8171147132565201,28.607887268066406,2.1339986324310303,-1.566417928700048e-08,-2.162224981599689,45.19060936407622,45.272171251136676,0.9688308238983154,0.2470228672027588,0.018044281750917435,-0.004600752145051956
0.0925,5.082329683444665,16.359218506180024,34.566191884349955,-0.0435585758209361,0.82332154893396,0.8168418100804498,28.690654754638672,2.1334023475646973,6.182884959571311e-08,-2.150882718601332,45.185682368669426,45.26639109072866,0.9686521887779236,0.24772261083126068,0.01803591474890709,-0.004612495191395283
0.093,4.772474329247847,16.351946180913423,34.669402385537964,-0.043308516793047556,0.8228989380829848,0.8165677524627952,28.772850036621094,2.132693290710449,-1.8257191314319243e-08,-2.1394551735382854,45.18102501149769,45.26087869443348,0.9684743285179138,0.24841737747192383,0.01802660897374153,-0.004623894579708576
0.0935,4.462867089005269,16.344307895013234,34.772018600272624,-0.04305717067458251,0.822483056505471,0.8162925458779464,28.854476928710938,2.1318719387054443,5.534589675448842e-08,-2.1279468876459213,45.17663822103436,45.255635429015236,0.9682973027229309,0.249107226729393,0.018016371876001358,-0.004634948447346687
0.094,4.15349736354898,16.336298268831037,34.87408587832242,-0.04280463209872583,0.8220739283531877,0.8160161976059022,28.935537338256836,2.130938768386841,-2.6806693753655964e-08,-2.1163625112162388,45.17252276431312,45.25066250131107,0.9681210517883301,0.2497921586036682,0.01800520345568657,-0.004645657725632191
0.0945,3.8443544538170906,16.327912119948596,34.975649448424164,-0.04255099758020943,0.8216715750939186,0.8157387167105653,29.01603126525879,2.1298933029174805,6.905645388854964e-09,-2.104706799094864,45.16867924854512,45.24596095917234,0.967945396900177,0.25047218799591064,0.017993103712797165,-0.004656018689274788
0.095,3.5354275697652624,16.31914446645479,35.07675438416578,-0.042296365422048336,0.8212760155416151,0.8154601140153185,29.09596824645996,2.1287360191345215,-1.754411016463564e-08,-2.092984606106138,45.16510812290656,45.24153169258501,0.9677706360816956,0.25114738941192627,0.017980080097913742,-0.0046660336665809155
0.0955,3.2267058387419905,16.309990530096723,35.177445570355616,-0.04204083562133923,0.8208872658883941,0.8151804020759571,29.175352096557617,2.1274681091308594,-1.3644232410570112e-08,-2.0812008824139197,45.16180968049164,45.237375434966154,0.9675966501235962,0.2518177926540375,0.01796613447368145,-0.004675700794905424
0.096,2.918178313321306,16.300445739307776,35.277767669906204,-0.04178450977427183,0.8205053397382986,0.8148995951511069,29.254182815551758,2.126089096069336,-2.4428015166222394e-08,-2.0693606688256017,45.158784060423244,45.23349276463023,0.9674233794212341,0.25248342752456665,0.017951270565390587,-0.004685020539909601
0.0965,2.6098339785875924,16.29050573211448,35.377765091260926,-0.04152749098050214,0.8201302481427439,0.8146177091702174,29.33246421813965,2.124598979949951,-5.507789069270075e-08,-2.057469092046844,45.15603125011527,45.229884106420656,0.9672508835792542,0.2531443238258362,0.017935490235686302,-0.004693991970270872
0.097,2.3016617588683816,16.28016635892473,35.47748195638912,-0.04126988374703502,0.8197619996375702,0.8143347616992548,29.410202026367188,2.1229989528656006,-2.3617248601226493e-08,-2.0455313598944462,45.153551087679254,45.22654973350077,0.9670791625976562,0.25380051136016846,0.017918799072504044,-0.0047026146203279495
0.0975,1.993650523912162,16.269423685199698,35.57696206937636,-0.04101179389176046,0.8194006002816152,0.81405077190421,29.487403869628906,2.121289014816284,-6.3459677512867074e-09,-2.0335527564746863,45.15134326446809,45.223489769298084,0.9669082164764404,0.25445204973220825,0.01790119893848896,-0.0047108884900808334
0.098,1.6857890945093585,16.258273994011727,35.67624888563365,-0.04075332844678606,0.819046053696717,0.8137657605125364,29.564062118530273,2.11946964263916,-2.7756367870779286e-08,-2.021538637334417,45.14940732774928,45.22070418959607,0.9667380452156067,0.25509893894195557,0.01788269355893135,-0.0047188131138682365
0.0985,1.378066247555825,16.24671378849074,35.7753854817501,-0.04049459556170469,0.8186983611090651,0.8134797497726487,29.64020538330078,2.117541551589966,4.2145416045968886e-08,-2.0094944245920114,45.147742683500056,45.21819282476651,0.9665687680244446,0.25574126839637756,0.017863290384411812,-0.0047263894230127335
0.099,1.0704707205593775,16.234739794161456,35.874414526010966,-0.04023570440693409,0.8183575213918051,0.8131927634116041,29.715801239013672,2.1155037879943848,-6.090549398152234e-09,-1.997425602055238,45.146348599316646,45.215955362136164,0.9664000272750854,0.25637897849082947,0.017842983826994896,-0.004733615554869175
0.0995,0.7629912155909918,16.22234896117383,35.97337824960305,-0.03997676507726102,0.8180235311088021,0.8129048265910924,29.79088020324707,2.11335825920105,-1.1141032096873005e-08,-1.9853377103329424,45.14522420742961,45.21399134848057,0.966232180595398,0.25701218843460083,0.017821786925196648,-0.004740492440760136
0.1,0.4556164026835244,16.20953846642902,36.07231841852728,-0.03971788849571977,0.8176963845594751,0.8126159658618695,29.86543846130371,2.1111044883728027,-3.7191050239471224e-08,-1.9732363419472936,45.144368507817056,45.21230019263798,0.9660651087760925,0.25764089822769165,0.017799697816371918,-0.0047470200806856155
0.1005,0.14833492268190665,16.196305715603216,36.17127630623794,-0.039459186317930536,0.8173760738246056,0.8123262091167621,29.93947982788086,2.108743190765381,-2.9008428992227664e-09,-1.961127136453199,45.14378037140794,45.210881168236206,0.9658988118171692,0.2582651376724243,0.017776723951101303,-0.00475319754332304
0.101,-0.1588646104500587,16.18264834507153,36.27029266702596,-0.039200770837019484,0.8170625888130196,0.8120355855423798,30.013004302978516,2.1062748432159424,-2.9424944258948926e-08,-1.9490157755713193,45.143458543366485,45.20973341652468,0.9657332897186279,0.2588849365711212,0.017752869054675102,-0.004759026691317558
0.1015,-0.4659936078600728,16.168564223734197,36.36940771016327,-0.038942754889238373,0.8167559173090501,0.8117441255696631,30.086021423339844,2.1036999225616455,-3.3195000526120566e-08,-1.9369079783409566,45.14340164644997,45.20885594930431,0.9655685424804688,0.2595003545284271,0.017728136852383614,-0.004764507059007883
0.10200000000000001,-0.7730635045675405,16.15405145474707,36.46866107482306,-0.03868525176039693,0.816456045020682,0.811451860823405,30.158531188964844,2.1010189056396484,1.4263462411179262e-08,-1.924809496298876,45.14360818443136,45.20824765194744,0.9654045701026917,0.26011139154434204,0.017702531069517136,-0.00476963771507144
0.10250000000000001,-1.0800857587451753,16.13910837715854,36.56809180579007,-0.03842837509321724,0.8161629556282729,0.811158824070881,30.230541229248047,2.0982322692871094,-7.513086153210224e-09,-1.912726108689962,45.14407654557774,45.2079072864996,0.9652413725852966,0.26071810722351074,0.017676057294011116,-0.0047744205221533775
0.10300000000000001,-1.3870718515125027,16.123733567454707,36.667738329973275,-0.038172238795714186,0.8158766308337626,0.8108650491697128,30.302047729492188,2.0953404903411865,3.8997352902470084e-08,-1.9006636177153653,45.14480500617732,45.207833494855805,0.9650789499282837,0.2613205015659332,0.017648721113801003,-0.004778855014592409
0.10350000000000001,-1.6940332872306871,16.107925841014627,36.76763843373203,-0.03791695695070208,0.8155970504102615,0.8105705710151118,30.37306022644043,2.092344284057617,3.010428883953864e-08,-1.8886278438236241,45.145791734105345,45.208024802002825,0.9649173021316528,0.2619186341762543,0.017620524391531944,-0.004782942123711109
0.10400000000000001,-2.0009815942870612,16.09168425347742,36.86782924102547,-0.03766264372652153,0.8153241922519158,0.8102754254866186,30.44358253479004,2.0892438888549805,2.5616262444572158e-09,-1.8766246210499917,45.14703479242123,45.20847961931943,0.964756429195404,0.26251253485679626,0.017591476440429688,-0.004786682780832052
0.1045,-2.3079283263567465,16.075008102022817,36.96834719239317,-0.03740941328907627,0.815058032423962,0.809979649394483,30.513608932495117,2.0860402584075928,-8.256748884605258e-08,-1.8646597924089496,45.148532142988536,45.209196247926755,0.9645962715148926,0.2631022036075592,0.01756157912313938,-0.004790077451616526
0.105,-2.6148850641277424,16.05789692656649,37.06922802477441,-0.03715737971526437,0.8147985452128562,0.809683280425802,30.58315086364746,2.082733392715454,-7.005180435726288e-08,-1.8527392053446985,45.15028165010919,45.21017288208041,0.9644368886947632,0.2636876702308655,0.017530838027596474,-0.0047931247390806675
0.1055,-2.9218634174749174,16.0403505108716,37.17050675217083,-0.03690665690788306,0.8145457031763883,0.8093863570905488,30.65221405029297,2.07932448387146,-3.38620829154479e-08,-1.8408687072441439,45.15228108416424,45.211407612596325,0.9642783999443054,0.26426902413368225,0.01749926060438156,-0.004795827437192202
0.106,-3.2288750280674243,16.0223688835778,37.27221764715738,-0.03665735851208037,0.8142994771936776,0.8090889186676148,30.720796585083008,2.0758135318756104,-2.2628347196018694e-08,-1.829054141016618,45.15452812525256,45.21289843030222,0.9641205668449402,0.26484623551368713,0.017466848716139793,-0.004798185545951128
0.1065,-3.535931572393155,16.003952319148592,37.37439422324316,-0.0364095978334229,0.8140598365149545,0.8087910051509881,30.788902282714844,2.0722014904022217,-1.0567114294701696e-08,-1.817301340744392,45.15702036682001,45.21464322950661,0.963963508605957,0.2654193639755249,0.017433609813451767,-0.004800199996680021
0.107,-3.843044765183004,15.985101338738053,37.47706921808431,-0.03616348775764182,0.8138267488110311,0.8084926571961841,30.856538772583008,2.0684890747070312,-1.098484148087664e-08,-1.8056161274076963,45.15975531927105,45.216639811477556,0.963807225227356,0.26598843932151794,0.01739954948425293,-0.004801872186362743
0.1075,-4.150226363216953,15.965816710977714,37.58027457754849,-0.03591914067211522,0.8136001802223602,0.8081939160670484,30.92371368408203,2.0646772384643555,3.481628041424045e-10,-1.7940043046877732,45.16273041355507,45.21888588792291,0.9636518359184265,0.26655352115631104,0.01736467331647873,-0.004803202580660582
0.108,-4.457488169493071,15.946099452684075,37.68404144062899,-0.03567666838913869,0.8133800954075979,0.8078948235830355,30.990407943725586,2.060765266418457,-1.1820433520881579e-08,-1.7824716548511748,45.16594300472032,45.2213790844648,0.9634969830513,0.2671145498752594,0.017328983172774315,-0.004804191179573536
0.1085,-4.7648420377399745,15.925950829487272,37.788400125206,-0.03543618207103045,0.8131664575915664,0.8075954220670867,31.056650161743164,2.0567548274993896,9.933610378709545e-09,-1.7710239347182601,45.169390375427774,45.22411694410009,0.9633430242538452,0.2676716148853302,0.017292490229010582,-0.004804839380085468
0.109,-5.072299877252461,15.905372356381319,37.89338011465068,-0.035197792157112114,0.8129592286125319,0.8072957542941932,31.1224308013916,2.052647352218628,-1.280793426872151e-08,-1.7596668717185868,45.1730697394181,45.22709693063979,0.9631898999214172,0.2682247459888458,0.017255201935768127,-0.00480515044182539
0.1095,-5.379873658029392,15.884365798195812,37.999010045266154,-0.03496160829260052,0.8127583689687091,0.8069958634407586,31.18775177001953,2.0484421253204346,-5.290598181773021e-09,-1.7484061600356047,45.17697824492497,45.23031643211991,0.9630374312400818,0.2687739431858063,0.0172171201556921,-0.004805122967809439
0.11,-5.687575416192431,15.86293316998931,38.105317694558316,-0.03472773925944062,0.8125638378638981,0.8066957930348513,31.252622604370117,2.044140577316284,-3.9050366495985145e-08,-1.7372474568428031,45.1811129780277,45.23377276417629,0.9628857374191284,0.2693192660808563,0.017178252339363098,-0.004804759752005339
0.1105,-5.995417259663465,15.841076737364133,38.21232997032843,-0.03449629290910427,0.812375593252178,0.806395586907432,31.31705093383789,2.039743661880493,-3.500269230016784e-08,-1.7261963786331926,45.18547096593769,45.237463173377044,0.9627349376678467,0.26986074447631836,0.017138607800006866,-0.004804061260074377
0.111,-6.303411374078326,15.818799016702348,38.32007290057792,-0.03426737609737478,0.8121935918815667,0.8060952891446513,31.381025314331055,2.0352518558502197,2.018426137340157e-08,-1.715258497643764,45.190049180211716,45.241384840505354,0.9625847935676575,0.2703983783721924,0.017098190262913704,-0.004803028889000416
0.1115,-6.611570028913708,15.796102775322304,38.42857162421458,-0.03404109462113102,0.8120177893365716,0.805794944041293,31.44455337524414,2.030665636062622,3.331610543000352e-08,-1.7044393383762468,45.194844539886795,45.245534883786256,0.9624353647232056,0.2709321975708008,0.017057007178664207,-0.0048016649670898914
0.112,-6.919905583803906,15.772991031555287,38.537850382548385,-0.03381755315714066,0.8118481400795541,0.8054945960554343,31.507646560668945,2.025986909866333,8.657792538446785e-11,-1.6937443742152927,45.199853914531374,45.249910362051295,0.9622868299484253,0.27146223187446594,0.017015067860484123,-0.004799970425665379
0.1125,-7.228430495023686,15.749467054741562,38.64793251156431,-0.03359685520286655,0.8116845974908247,0.805194289764404,31.570297241210938,2.0212149620056152,-1.2039834018651163e-08,-1.6831790241449083,45.205074127206586,45.254508277834624,0.9621389508247375,0.27198851108551025,0.01697237603366375,-0.004797946661710739
0.113,-7.537157322113204,15.725534365144686,38.758840434957655,-0.03337910301928577,0.8115271139074131,0.8048940698220927,31.63251304626465,2.0163514614105225,2.5942451742366757e-08,-1.6727486495637336,45.21050195733417,45.259325580395284,0.9619918465614319,0.2725110650062561,0.016928939148783684,-0.004795594606548548
0.1135,-7.846098734620657,15.701196733783355,38.87059565791743,-0.03316439757571522,0.8113756406604321,0.8045939809176794,31.694299697875977,2.011396646499634,-6.64728432298034e-08,-1.66245855119948,45.21613414346528,45.26435916865987,0.9618454575538635,0.2730299234390259,0.016884764656424522,-0.004792917985469103
0.114,-8.155267518938228,15.676458182179532,38.983218761641645,-0.03295283849663459,0.8112301281109698,0.8042940677358251,31.75565528869629,2.006352424621582,8.330789569299668e-08,-1.6523139661226827,45.22196738594648,45.269605894080435,0.9616998434066772,0.2735450863838196,0.01683986186981201,-0.0047899154014885426
0.1145,-8.464676585206758,15.651322982021501,39.09672939856761,-0.03274452401049082,0.8110905256844605,0.803994374918386,31.81658363342285,2.001218795776367,-4.9546084568419246e-08,-1.6423200648595342,45.2279983494789,45.27506256340282,0.961555004119873,0.274056613445282,0.0167942363768816,-0.0047865924425423145
0.115,-8.77433897426426,15.6257956547407,39.21114628830014,-0.032539550900466195,0.8109567819034607,0.8036949470276815,31.87709617614746,1.9959971904754639,-3.637807566292395e-08,-1.6324819486035338,45.23422366556707,45.28072594134086,0.9614109992980957,0.2745645344257355,0.01674789749085903,-0.004782948177307844
0.1155,-9.084267864613752,15.599880971000717,39.32648721421859,-0.032338014457185635,0.8108288444187871,0.8033958285113586,31.937177658081055,1.9906879663467407,-5.070133468620952e-08,-1.6228046465252581,45.240639934853974,45.28659275315217,0.9612676501274109,0.27506881952285767,0.016700850799679756,-0.004778984934091568
0.116,-9.394476579385506,15.573583950096719,39.44276902074406,-0.032140008433336906,0.8107066600389589,0.8030970636688789,31.996849060058594,1.9852930307388306,-3.053731489899292e-08,-1.6132931131795185,45.247243729339736,45.29265968711162,0.9611251354217529,0.2755695581436157,0.01665310747921467,-0.004774705972522497
0.1165,-9.704978593269225,15.546909859263948,39.56000761124708,-0.0319456250001711,0.8105901747579014,0.8027986966196564,32.05609893798828,1.9798117876052856,5.218939591600247e-08,-1.603952226008797,45.25403159448124,45.29892339687898,0.9609832763671875,0.27606672048568726,0.016604671254754066,-0.004770110826939344
0.117,-10.015787539391486,15.51986421289317,39.678217946575224,-0.031754954705849076,0.8104793337808638,0.8025007712728595,32.11494445800781,1.9742463827133179,-4.970263844938927e-08,-1.5947867829417814,45.26100005117056,45.305380503757505,0.9608422517776489,0.27656036615371704,0.016555553302168846,-0.004765205085277557
0.11750000000000001,-10.326917216114364,15.492452771651331,39.79741404418,-0.031568086435594576,0.8103740815485174,0.8022033312988974,32.173370361328125,1.968597173690796,-4.290475885682099e-08,-1.5858015000855274,45.2681455975904,45.31202759884047,0.9607018828392029,0.2770504653453827,0.016505761072039604,-0.0047599878162145615
0.11800000000000001,-10.638381593730907,15.46468154150561,39.917608977821565,-0.03138510737361237,0.8102743617591923,0.8019064201025875,32.23139953613281,1.9628658294677734,-7.320305428493157e-08,-1.577001009509669,45.27546471094517,45.31886124504344,0.9605623483657837,0.27753713726997375,0.016455303877592087,-0.0047544632107019424
0.11850000000000001,-10.950194821033826,15.43655677264877,40.03881487782981,-0.031206102966726677,0.8101801173892273,0.8016100807980147,32.28900909423828,1.957052230834961,-8.984582522408857e-10,-1.5683898571209036,45.28295384906654,45.32587797901984,0.960423469543457,0.27802032232284546,0.01640418730676174,-0.004748631734400988
0.11900000000000001,-11.262371231733958,15.40808495832366,40.16104293189943,-0.03103115688969168,0.8100912907114,0.8013143561850721,32.34622573852539,1.9511582851409912,4.0553114644126254e-08,-1.5599725006258072,45.2906094518926,45.33307431295799,0.9602853059768677,0.2785000801086426,0.016352422535419464,-0.004742497578263283
0.11950000000000001,-11.574925350705358,15.379272833545338,40.28430338639697,-0.030860351012124282,0.8100078233114186,0.801019288727676,32.403045654296875,1.9451850652694702,9.508213105746677e-10,-1.5517533075799101,45.298427942820645,45.34044673625842,0.96014803647995,0.2789764106273651,0.016300018876791,-0.00473606213927269
0.12,-11.887871900034334,15.350127373718074,40.40860554815716,-0.030693765367005847,0.8099296561024555,0.8007249205336351,32.45945358276367,1.9391322135925293,-6.859013979010342e-08,-1.543736553520808,45.30640572993314,45.34799171709034,0.96001136302948,0.27944931387901306,0.01624698005616665,-0.004729327280074358
0.1205,-12.201225804850576,15.320655793145711,40.533957786746114,-0.030531478120698397,0.8098567293377036,0.8004312933361618,32.51548385620117,1.9330031871795654,-6.784039108254092e-09,-1.5359264201829645,45.31453920709739,45.355705703826054,0.9598755836486816,0.2799188792705536,0.016193322837352753,-0.004722296260297298
0.121,-12.5150021989184,15.290865543433062,40.660367537168845,-0.03037356554441833,0.809788982620951,0.8001384484769912,32.57110595703125,1.9267966747283936,-7.842143645575561e-08,-1.5283269937917563,45.32282475493955,45.363585126353726,0.959740400314331,0.2803850769996643,0.01613904908299446,-0.004714971873909235
0.1215,-12.829216429967378,15.260764311776272,40.787841302997975,-0.03022010198710892,0.8097263549151649,0.7998464268910795,32.62635040283203,1.9205154180526733,-3.980191820573964e-08,-1.5209422634341792,45.33125874169411,45.37162639726785,0.9596060514450073,0.28084796667099,0.016084173694252968,-0.004707356449216604
0.122,-13.143884064741858,15.230360019140253,40.91638465990178,-0.030071159849651828,0.8096687845490779,0.7995552690928497,32.68120193481445,1.9141595363616943,-8.585618438416986e-09,-1.5137761195035768,45.339837523929795,45.37982591293792,0.9594723582267761,0.28130751848220825,0.01602870225906372,-0.004699452314525843
0.1225,-13.459020893749601,15.199660818320933,41.046002259548736,-0.029926809560356028,0.8096162092217913,0.7992650151639387,32.73566436767578,1.9077304601669312,8.930889094926897e-08,-1.506832352215639,45.348557447154164,45.38818005445619,0.9593393802642822,0.28176379203796387,0.015972644090652466,-0.004691261798143387
0.123,-13.774642935690702,15.16867509189063,41.17669783386693,-0.029787119551662106,0.8095685660053876,0.7989757047424038,32.78974914550781,1.9012296199798584,4.040169088170842e-08,-1.5001146501928802,45.35741484629843,45.396685188465305,0.9592072367668152,0.2822168171405792,0.0159160103648901,-0.00468278955668211
0.1235,-14.090766441548292,15.137411450024237,41.30847419963623,-0.02965215623799838,0.8095257913455722,0.7986873770133406,32.84345245361328,1.894657850265503,-4.1850007903576625e-08,-1.4936265991147104,45.36640604608489,45.405337667867045,0.9590758085250854,0.28266656398773193,0.015858810395002365,-0.0046740369871258736
0.124,-14.407407898323836,15.105878728204711,41.44133326339206,-0.029521983994725155,0.8094878210603546,0.7984000707008553,32.89677047729492,1.8880157470703125,3.0660331162835064e-08,-1.4873716804302,45.37552736127975,45.414133832414194,0.9589450359344482,0.2831130623817444,0.015801051631569862,-0.00466500548645854
0.1245,-14.724584032400186,15.074085984805768,41.57527602661954,-0.029396665138103385,0.8094545903367898,0.7981138240613378,32.94972229003906,1.881305456161499,-3.080271682165403e-08,-1.4813532701305996,45.38477509683402,45.423070009187164,0.9588150978088379,0.28355640172958374,0.015742747113108635,-0.004655701573938131
0.125,-15.042311812516775,15.042042498550275,41.710302591217506,-0.029276259906223432,0.8094260337258049,0.797828674877975,33.002288818359375,1.8745272159576416,4.701821154640129e-08,-1.4755746375786496,45.39414554791591,45.43214251295789,0.9586857557296753,0.2839965224266052,0.01568390242755413,-0.004646124318242073
0.1255,-15.360608452341891,15.00975776584257,41.84641216521252,-0.0291608264408305,0.809402085135128,0.7975446604564358,33.05449295043945,1.8676832914352417,-9.765890318647052e-09,-1.4700389443917485,45.40363499983781,45.441347646443276,0.9585573673248291,0.2844334840774536,0.015624534338712692,-0.004636280704289675
0.126,-15.67949141262836,14.97724149797327,41.98360306870305,-0.029050420769983286,0.809382677820366,0.7972618176216687,33.10631561279297,1.8607733249664307,-1.2380978908765883e-08,-1.464749243375996,45.413239727881965,45.45068170045145,0.9584294557571411,0.2848672568798065,0.01556464470922947,-0.004626170266419649
0.1265,-15.998978402939452,14.9445036181951,42.12187274001522,-0.028945096791483046,0.8093677443742497,0.7969801827157336,33.15778350830078,1.8538000583648682,-9.283127155867987e-09,-1.459708477508197,45.422955997028495,45.46014095392349,0.9583024382591248,0.2852979302406311,0.01550424937158823,-0.004615797661244869
0.127,-16.31908738293301,14.911554258668566,42.261217742051954,-0.028844906257011523,0.8093572167140972,0.7966997915966011,33.20886993408203,1.8467642068862915,-5.886012388600648e-08,-1.4549194789629163,45.43278006159012,45.4697216738745,0.9581761360168457,0.2857254445552826,0.015443355776369572,-0.004605166148394346
0.1275,-16.63983656319289,14.878403757276004,42.40163376881801,-0.028749898756916553,0.8093510260675293,0.7964206796378415,33.25959396362305,1.8396663665771484,-4.460451563659262e-08,-1.4503849681817138,45.442708164757946,45.4794201152372,0.9580504298210144,0.2861498296260834,0.015381974168121815,-0.004594277590513229
0.128,-16.96124440559774,14.845062654303463,42.54311565210436,-0.02866012170558632,0.8093491029564887,0.7961428817291301,33.30995559692383,1.8325084447860718,-2.2580099567903744e-08,-1.4461075529817478,45.45273653806288,45.48923252061212,0.95792555809021,0.2865711748600006,0.015320117585361004,-0.004583137109875679
0.1285,-17.28332962321821,14.81154168898901,42.68565736831621,-0.02857562032735398,0.8093513771796083,0.7958664322774853,33.359962463378906,1.8252912759780884,-3.118449498629161e-08,-1.4420897277010059,45.462861400757525,45.49915511992861,0.9578014016151428,0.2869894504547119,0.01525779440999031,-0.004571747500449419
0.129,-17.606111179734732,14.777851795937265,42.82925204542945,-0.028496437642876373,0.8093577777929825,0.7955913652091627,33.409610748291016,1.818016767501831,-1.1309414738036594e-08,-1.4383338723774726,45.47307895912365,45.50918413002067,0.957677960395813,0.2874046564102173,0.01519501581788063,-0.004560111556202173
0.1295,-17.92960828836954,14.744004101399488,42.97389197006218,-0.028422614455932797,0.809368233089401,0.7953177139721263,33.45889663696289,1.810685634613037,4.5310816432220236e-08,-1.4348422519596564,45.483385405710145,45.519315754122246,0.9575552344322205,0.2878168225288391,0.01513179112225771,-0.004548232536762953
0.13,-18.253840410327076,14.71000991941884,43.11956859464792,-0.028354189340591324,0.809382670576097,0.7950455115390097,33.50782775878906,1.8032991886138916,-8.37149816135252e-09,-1.431617015545981,45.49377691850686,45.52954618128652,0.9574332237243652,0.2882259786128998,0.015068131498992443,-0.0045361146330833435
0.1305,-18.578827252738517,14.675880747840944,43.266272544698346,-0.028291198628692924,0.80940101695108,0.7947747904104886,33.556400299072266,1.7958585023880005,-5.563480787174058e-09,-1.428660195650649,45.50424966005986,45.539871585734275,0.9573119282722473,0.2886320948600769,0.015004048123955727,-0.004523760639131069
0.131,-18.904588766106976,14.641628264189627,43.41399362614529,-0.02823367639760558,0.809423198078113,0.7945055826189807,33.6046257019043,1.7883652448654175,1.1820480594337823e-08,-1.4259737074936951,45.51479977653342,45.55028812613581,0.9571913480758667,0.28903523087501526,0.014939552173018456,-0.004511174280196428
0.1315,-19.231145141251154,14.60726432140804,43.5627208327508,-0.028181654458203698,0.8094491389604055,0.7942379197325921,33.652496337890625,1.7808208465576172,2.187614533966098e-09,-1.4235593483130744,45.525423396724534,45.560791944831934,0.9570714831352234,0.28943538665771484,0.01487465389072895,-0.004498359281569719
0.132,-19.5585168057463,14.5728009434656,43.712442353577316,-0.02813516234303009,0.8094787637130931,0.7939718328592207,33.70001983642578,1.773226022720337,-7.803444646015123e-08,-1.4214187966967444,45.53611663103572,45.571379166999094,0.9569523334503174,0.28983256220817566,0.014809363521635532,-0.004485318902879953
0.1325,-19.886724419862468,14.538250320831338,43.86314558050896,-0.0280942272946013,0.8095119955345781,0.793707352650747,33.7471923828125,1.7655824422836304,-7.501333776360752e-09,-1.4195536119328385,45.54687557041174,45.58204589976379,0.9568338990211487,0.2902267873287201,0.014743693172931671,-0.004472055938094854
0.133,-20.215788872001085,14.503624805814363,44.01481711581795,-0.028058874253819883,0.8095487566768039,0.7934445093072152,33.79402160644531,1.7578915357589722,2.21661053956268e-08,-1.4179652333761963,45.55769628524643,45.592788231271996,0.9567161798477173,0.29061809182167053,0.014677654020488262,-0.00445857597514987
0.1335,-20.545731273632054,14.46893690777242,44.167442779769466,-0.028029125848459704,0.8095889684145472,0.7931833325809382,33.84050369262695,1.7501544952392578,-3.398514536456787e-08,-1.4166549798296029,45.56857482426502,45.60360222971861,0.9565991759300232,0.291006475687027,0.014611256308853626,-0.004444881808012724
0.134,-20.876572953734655,14.434199288189614,44.32100761826084,-0.028005002381694667,0.8096325510138053,0.7929238517804399,33.886653900146484,1.7423731088638306,-6.069673474939918e-08,-1.4156240489383096,45.57950721338843,45.614483942342865,0.956483006477356,0.2913919687271118,0.014544513076543808,-0.004430977627635002
0.1345,-21.208335452746617,14.39942475562477,44.47549591049042,-0.02798652182064379,0.8096794236993625,0.7926660957741555,33.932456970214844,1.7345478534698486,1.428991680541003e-08,-1.4148735165965427,45.59048945458517,45.62542939439504,0.9563674330711365,0.29177454113960266,0.014477432705461979,-0.004416865296661854
0.135,-21.541040516026793,14.36462626053174,44.63089117665481,-0.02797369978490871,0.8097295046216144,0.792410092993821,33.97791290283203,1.7266805171966553,-6.704778066080053e-09,-1.4144043363648384,45.60151752471657,45.63643458807973,0.9562525749206543,0.2921542227268219,0.014410027302801609,-0.004402550403028727
0.1355,-21.87471008683789,14.32981688995345,44.78717618567138,-0.027966549535084546,0.8097827108227507,0.7921558714374728,34.023033142089844,1.718772292137146,-4.9994985928947244e-09,-1.4142173388972783,45.61258737438177,45.64749550148197,0.9561384320259094,0.29253101348876953,0.014342308975756168,-0.004388036206364632
0.136,-22.209366298856978,14.295009862091733,44.94433296292698,-0.02796508196122664,0.8098389582023636,0.791903458671983,34.06781768798828,1.7108248472213745,-1.710445474145672e-08,-1.4143132313777989,45.6236949267678,45.658608087480964,0.9560250043869019,0.29290497303009033,0.014274287968873978,-0.004373326897621155
0.1365,-22.545031468222042,14.260218520754627,45.10234279805234,-0.02796930557126134,0.8098981614825911,0.791652881835071,34.11226272583008,1.7028393745422363,7.62315082170062e-08,-1.4146925969649853,45.63483607651077,45.66976827265742,0.9559122920036316,0.2932760715484619,0.014205977320671082,-0.004358425736427307
0.137,-22.881728085124564,14.225456329683889,45.26118625272452,-0.02797922647933129,0.8099602341728669,0.7914041676367132,34.156375885009766,1.6948177814483643,-2.672824805927121e-08,-1.4153558942449067,45.64600668857386,45.68097195619977,0.9558004140853882,0.29364433884620667,0.01413738913834095,-0.004343338310718536
0.1375,-23.219478804958232,14.1907368667649,45.420843168499225,-0.027994848394069884,0.8100250885343834,0.7911573423598942,34.200157165527344,1.686760425567627,1.011136596673623e-08,-1.4163034566917256,45.65720259714773,45.69221500881476,0.9556891322135925,0.2940097749233246,0.014068531803786755,-0.0043280660174787045
0.138,-23.558306439035693,14.156073818121847,45.58129267467698,-0.028016172606803887,0.8100926355443452,0.790912431860639,34.24360275268555,1.6786692142486572,9.656832133941862e-08,-1.417535492136037,45.66841960457871,45.70349327164755,0.9555785655975342,0.2943723797798157,0.01399941835552454,-0.004312613978981972
0.1385,-23.89823394488546,14.121480972100917,45.74251319620731,-0.02804319797968569,0.8101627848601173,0.7906694615672639,34.286712646484375,1.6705456972122192,-1.1160036450519328e-08,-1.419052082241003,45.67965348033043,45.71480255521679,0.9554687142372131,0.2947321832180023,0.013930059969425201,-0.004296987317502499
0.139,-24.239284416142507,14.086972213144687,45.90448246163626,-0.02807592093376123,0.8102354447833484,0.7904284564788003,34.329490661621094,1.662390947341919,1.6390634627327927e-08,-1.4208531819865804,45.69089995998369,45.72613863836946,0.9553595781326294,0.2950891852378845,0.013860468752682209,-0.004281188361346722
0.1395,-24.58148107204639,14.052561515560916,46.06717751110319,-0.028114335436983457,0.8103105222241727,0.7901894411625299,34.371944427490234,1.65420663356781,-1.061709831162716e-08,-1.4229386191623041,45.70215474428028,45.737497267260935,0.955251157283783,0.29544341564178467,0.013790655881166458,-0.004265222232788801
0.14,-24.924847246562443,14.018262937189121,46.23057470439419,-0.028158432992184308,0.8103879226655746,0.7899524397505964,34.414066314697266,1.6459938287734985,2.6644627837413282e-08,-1.425308093869249,45.71341349821504,45.74887415436467,0.9551434516906738,0.29579484462738037,0.013720632530748844,-0.004249091725796461
0.1405,-25.269406377141195,13.984090612968686,46.39464972905938,-0.028208202625021963,0.810467550128014,0.7897174759356447,34.45587158203125,1.6377546787261963,4.3629388102317535e-08,-1.4279611780319668,45.72467185018143,45.76026497751653,0.9550365805625916,0.2961435317993164,0.013650412671267986,-0.004232802428305149
0.14100000000000001,-25.61518199313314,13.950058748412044,46.559377608603164,-0.028263630871924385,0.8105493071344002,0.789484572965448,34.497344970703125,1.6294896602630615,3.5683004995235024e-08,-1.4308973149214022,45.735925391174895,45.771665378998236,0.9549303650856018,0.2964894473552704,0.013580004684627056,-0.004216357599943876
0.14150000000000001,-25.962197703875628,13.916181612987153,46.72473271075567,-0.028324701768053042,0.8106330946755094,0.7892537536364923,34.538490295410156,1.621200680732727,-6.160175480829366e-09,-1.4341158186899134,45.74716967405852,45.78307096466438,0.9548248648643494,0.2968325912952423,0.013509421609342098,-0.0041997614316642284
0.14200000000000002,-26.310477186470283,13.882473533413043,46.890688755836514,-0.02839139683531406,0.8107188121759361,0.7890250402864856,34.57929992675781,1.6128886938095093,-4.389902663604062e-09,-1.4376158739196874,45.75840021289512,45.79447730311719,0.9547199606895447,0.2971729636192322,0.013438674621284008,-0.004183018114417791
0.14250000000000002,-26.66004417326907,13.848948886872927,47.05721882521979,-0.028463695070448308,0.8108063574606684,0.7887984547857654,34.61980056762695,1.6045557260513306,5.381797762993301e-08,-1.4413965351860427,45.76961248234983,45.8058799249332,0.9546158909797668,0.29751065373420715,0.01336777675896883,-0.004166131839156151
0.14300000000000002,-27.010922439088635,13.815622094148997,47.22429536991244,-0.02854157293323406,0.8108956267223774,0.788574018527583,34.659969329833984,1.5962029695510864,-1.5305129608123025e-08,-1.445456726637191,45.780801917166784,45.81727432194566,0.9545125365257263,0.29784560203552246,0.013296738266944885,-0.004149107728153467
0.14350000000000002,-27.36313578817206,13.782507612683556,47.39189021925682,-0.028625004334840325,0.8109865144895072,0.7883517524172504,34.699825286865234,1.5878316164016724,1.56580171051246e-08,-1.4497952415922482,45.791963911723364,45.82865594658613,0.9544098973274231,0.2981778383255005,0.013225572183728218,-0.004131948575377464
0.14400000000000002,-27.71670804091888,13.749619929571063,47.559974589769,-0.028713960626370896,0.8110789135952581,0.7881316768601311,34.739349365234375,1.579443097114563,6.419787013101086e-08,-1.4544107421593655,45.80309381966551,45.84002021128921,0.9543078541755676,0.29850733280181885,0.013154287822544575,-0.004114658571779728
0.1445,-28.071663020403452,13.716973554485806,47.72851909412556,-0.028808410587642996,0.8111727151475429,0.7879138117484689,34.7785530090332,1.5710391998291016,-6.7623178168219056e-09,-1.4593017588760204,45.814186953627015,45.851362487963236,0.954206645488739,0.2988341152667999,0.013082900084555149,-0.004097243305295706
0.145,-28.428024538703085,13.684583012550164,47.89749375031076,-0.028908320416247153,0.811267808500003,0.7876981764470545,34.81744384765625,1.562620997428894,9.768425179856877e-09,-1.4644666903736292,45.82523858503519,45.86267810752999,0.9541061520576477,0.2991582155227661,0.013011418282985687,-0.004079706035554409
0.1455,-28.78581638305723,13.652462837148317,48.06686799093689,-0.02901365371693736,0.8113640812241687,0.7874847897777224,34.85600662231445,1.5541901588439941,-4.839367662157201e-08,-1.4699038030687483,45.83624394400606,45.87396235953653,0.9540063738822937,0.299479603767395,0.01293985452502966,-0.004062051419168711
0.146,-29.14506230187935,13.620627562690629,48.23661067275027,-0.029124371491403647,0.8114614190828402,0.7872736700026897,34.89425277709961,1.5457478761672974,-3.567803608106601e-09,-1.4756112308832545,45.847198219330686,45.88521049184136,0.953907310962677,0.29979830980300903,0.012868220917880535,-0.004044282715767622
0.1465,-29.505785990643723,13.5890917173337,48.40669008633616,-0.029240432128481444,0.811559706004773,0.7870648348067448,34.932186126708984,1.5372955799102783,-1.2513243774492366e-08,-1.481586974995996,45.85809655855486,45.89641771037738,0.9538089632987976,0.30011433362960815,0.01279652863740921,-0.004026405513286591
0.147,-29.868011077668996,13.557869815661553,48.57707396603529,-0.02936179139485437,0.8116588240607405,0.7868583012782971,34.96979522705078,1.5288348197937012,-5.226367960631251e-08,-1.4878289036284864,45.86893406815375,45.90757917899377,0.9537113308906555,0.3004276752471924,0.012724789790809155,-0.004008424002677202
0.1475,-30.231761109821164,13.526976351333069,48.74772950008421,-0.029488402426309398,0.8117586534410458,0.7866540858893105,35.00708770751953,1.5203667879104614,-2.44961793072207e-08,-1.4943347518673136,45.87970581380269,45.91869001937843,0.9536144137382507,0.3007383346557617,0.012653015553951263,-0.003990341443568468
0.148,-30.597059538158298,13.4964257897012,48.91862334099308,-0.029620215719605412,0.8118590724345666,0.7864522044741383,35.04407501220703,1.511893391609192,1.8191428807767807e-08,-1.501102121526005,45.890406820745696,45.92974531106295,0.9535183310508728,0.30104637145996094,0.012581218965351582,-0.003972162958234549
0.1485,-30.963929703539545,13.466232560409459,49.0897216161727,-0.029757179125017203,0.8119599574093851,0.786252672207291,35.08073043823242,1.5034151077270508,-3.192383601913207e-08,-1.5081284810491231,45.90103207426183,45.94074009151099,0.9534228444099426,0.3013516962528229,0.01250940840691328,-0.003953892737627029
0.149,-31.332394822220927,13.436411049970975,49.26098993882315,-0.029899237839619647,0.8120611827950824,0.7860555035801662,35.1170768737793,1.49493408203125,2.8676989671794217e-09,-1.5154111654614697,45.911576520230255,45.95166935629133,0.9533281326293945,0.3016543686389923,0.012437596917152405,-0.003935534041374922
0.1495,-31.702477971460276,13.406975594335924,49.432393419095476,-0.030046334401376898,0.8121626210667596,0.7858607123767728,35.15310287475586,1.4864513874053955,-5.531382463175305e-09,-1.5229473763652492,45.922035065794475,45.96252805933678,0.9532341361045837,0.30195438861846924,0.01236579567193985,-0.003917092457413673
0.15,-32.07420207515408,13.377940471452687,49.60389667553867,-0.030198408684103437,0.8122641427308406,0.7856683116484945,35.18881607055664,1.4779685735702515,-1.1065586669189997e-08,-1.5307341819881248,45.93240258012498,45.97331111328892,0.9531408548355103,0.3022517263889313,0.012294015847146511,-0.0038985712453722954
0.1505,-32.44758988952813,13.349319893828357,49.77546384684181,-0.03035539789336434,0.8123656163127196,0.7854783136879311,35.22421646118164,1.469487190246582,-9.242439702461525e-09,-1.5387685172850758,45.942673895280464,45.984013389929366,0.9530484080314636,0.3025464415550232,0.012222271412611008,-0.0038799757603555918
0.151,-32.822663988904225,13.321128001094273,49.94705860388282,-0.03051723656338375,0.8124669083463077,0.7852907300018648,35.25929260253906,1.461008071899414,1.580269959333691e-08,-1.5470471840970457,45.95284380716678,45.99462972069774,0.9529566168785095,0.30283844470977783,0.012150569818913937,-0.0038613085635006428
0.1515,-33.19944675156485,13.293378852581938,50.118644162093254,-0.030683856555030246,0.8125678833655302,0.7851055712834046,35.29405975341797,1.4525330066680908,-5.470775388261018e-09,-1.555566851369289,45.96290707659264,46.00515489729594,0.9528656601905823,0.30312785506248474,0.012078925035893917,-0.003842575941234827
0.152,-33.5779603457373,13.266086419915124,50.29018329414836,-0.030855187054949305,0.8126684038978216,0.7849228473833587,35.32851028442383,1.4440629482269287,4.737217906836122e-08,-1.564324055432397,45.972858430421,46.01558367237843,0.9527752995491028,0.30341458320617676,0.01200734544545412,-0.003823780221864581
0.1525,-33.95822671571815,13.239264579623518,50.461638342991904,-0.03103115457591307,0.8127683304596631,0.7847425672808944,35.36264419555664,1.435599446296692,-3.033059314816455e-08,-1.5733152003489392,45.98269256281415,46.025910760327996,0.9526857137680054,0.30369865894317627,0.011935843154788017,-0.0038049272261559963
0.153,-34.34026756815949,13.212927105783589,50.632971235202135,-0.031211682958457047,0.8128675215542084,0.7845647390535451,35.39646530151367,1.4271445274353027,-2.9142979585117246e-08,-1.5825365583285935,45.992404136571444,46.0361308381159,0.9525970220565796,0.30398011207580566,0.011864432133734226,-0.003786020213738084
0.1535,-34.724104358536835,13.1870876626921,50.80414349470766,-0.0313966933738743,0.8129658336710331,0.7843893698466254,35.42997360229492,1.4186983108520508,-7.223124320887564e-09,-1.591984270214653,46.001987784557066,46.04623854624579,0.9525089859962463,0.30425891280174255,0.01179311890155077,-0.0037670631427317858
0.154,-35.109758277818585,13.16175979757772,50.97511625685787,-0.03158610432863644,0.8130631212880427,0.7842164658421218,35.46316146850586,1.410262942314148,-1.1591987814085769e-08,-1.6016543460447075,46.01143811121585,46.05622848977955,0.9524216651916504,0.30453506112098694,0.011721917428076267,-0.003748061368241906
0.1545,-35.49725023935681,13.136956933356263,51.14585028285436,-0.03177983167031043,0.8131592368755711,0.7840460322271295,35.496036529541016,1.4018394947052002,5.518679735416754e-09,-1.6115426656882432,46.020749694174235,46.06609523944385,0.9523351192474365,0.3048085570335388,0.011650837026536465,-0.0037290179170668125
0.155,-35.88660086601776,13.112692361434764,51.31630597454691,-0.03197778859503997,0.8132540309026989,0.7838780731618968,35.52859878540039,1.3934297561645508,-2.688424416419366e-08,-1.6216449795638637,46.02991708592417,46.07583333281592,0.9522494077682495,0.3050794303417206,0.011579890735447407,-0.0037099383771419525
0.1555,-36.27783047757099,13.088979234569843,51.48644338959737,-0.03217988565665852,0.8133473518458176,0.7837125917475616,35.560848236083984,1.3850340843200684,-1.3420081046433552e-08,-1.6319569094387072,46.03893481558654,46.08543727558624,0.952164351940155,0.30534765124320984,0.01150908600538969,-0.00369082554243505
0.156,-36.67095907835385,13.065830559785555,51.656222257014065,-0.03238603077750018,0.8134390461994501,0.7835495899936462,35.592777252197266,1.3766543865203857,-4.592985547446915e-09,-1.6424739493125864,46.04779739075064,46.09490154289606,0.9520800709724426,0.3056132197380066,0.011438434012234211,-0.0036716836038976908
0.1565,-37.06600634522928,13.043259191355766,51.82560199305718,-0.032596129260973966,0.8135289584893599,0.7833890687853885,35.6243896484375,1.3682917356491089,-2.4352106109404303e-08,-1.6531914663892795,46.05649929938692,46.104220580748006,0.9519965052604675,0.30587613582611084,0.011367946863174438,-0.0036525174509733915
0.157,-37.46299161585222,13.021277823856419,51.99454171751568,-0.03281008380596422,0.8136169312879501,0.7832310278509882,35.65568542480469,1.3599474430084229,4.528129871061992e-09,-1.664104702137258,46.06503501182879,46.11338880748673,0.9519137144088745,0.3061363995075226,0.011297633871436119,-0.0036333303432911634
0.1575,-37.86193387726092,12.999898985292303,52.163000270353756,-0.03302779452311933,0.8137028052319689,0.7830754657288473,35.686676025390625,1.3516234159469604,1.2084482747809489e-08,-1.675208773442057,46.07339898281984,46.12240061534723,0.9518318176269531,0.3063940703868866,0.011227507144212723,-0.003614127403125167
0.158,-38.26285175480708,12.979135030303615,52.330936228724816,-0.03324915895308752,0.81378641904252,0.7829223797348832,35.717342376708984,1.3433196544647217,-4.136913389629626e-08,-1.686498673852326,46.08158565362228,46.1312503720681,0.9517505764961243,0.30664902925491333,0.011157573200762272,-0.0035949116572737694
0.1585,-38.6657635014392,12.958998133456877,52.498307924348914,-0.03347407208675821,0.8138676095473935,0.7827717659299959,35.7476921081543,1.335038423538208,3.471221532436175e-08,-1.6979692749215118,46.08958945418281,46.139932422566844,0.9516701102256775,0.30690136551856995,0.011087845079600811,-0.003575687063857913
0.159,-39.07068698735208,12.939500282624984,52.66507346124839,-0.033702426387563024,0.8139462117057008,0.7826236190877734,35.77772521972656,1.3267802000045776,-2.2519911269114345e-08,-1.709615327646932,46.09740480535093,46.14844109067404,0.9515904188156128,0.30715101957321167,0.011018330231308937,-0.003556458279490471
0.1595,-39.47763969001472,12.920653272461085,52.83119073383555,-0.03393411181588941,0.8140220586348192,0.7824779326625151,35.807437896728516,1.3185466527938843,-2.981409608082686e-08,-1.7214314640078756,46.105026121145734,46.156770680923195,0.9515115022659302,0.3073980212211609,0.01094904076308012,-0.003537228563800454
0.16,-39.88663868458795,12.90246869797066,52.9966174453444,-0.03416901585565676,0.8140949816396335,0.7823346987576519,35.83683776855469,1.3103387355804443,3.8665472601451256e-08,-1.733412198604221,46.11244781106625,46.16491548039331,0.9514333605766296,0.3076423704624176,0.010879985056817532,-0.0035180016420781612
0.1605,-40.29770063474231,12.884957948186356,53.16131112659784,-0.03440702354310204,0.8141648102440636,0.782193908094654,35.86591720581055,1.3021581172943115,8.74504468839632e-09,-1.7455519303968736,46.119664282440674,46.17286976060037,0.9513561129570007,0.3078840672969818,0.010811174288392067,-0.0034987826365977526
0.161,-40.710841783885755,12.868132199949674,53.325229155099194,-0.034648017497818366,0.8142313722248596,0.7820555499825003,35.89467239379883,1.2940053939819336,2.392306264198396e-08,-1.7578449445511612,46.12666994280947,46.18062777943427,0.9512795209884644,0.30812308192253113,0.010742615908384323,-0.003479574341326952
0.1615,-41.126077946809644,12.852002411803838,53.488328774437136,-0.03489187795608808,0.8142944936476517,0.7819196122877942,35.92311477661133,1.285881757736206,-1.509145164391157e-08,-1.7702854143841757,46.1334592023377,46.188183783138086,0.9512037038803101,0.30835941433906555,0.01067432016134262,-0.0034603809472173452
0.162,-41.54342450176107,12.836579318001782,53.650567113990554,-0.03513848280654747,0.8143539989052216,0.7817860814056063,35.951236724853516,1.277788758277893,-2.2199447613502343e-08,-1.7828674034168697,46.14002647625105,46.195532008325316,0.9511287808418274,0.30859309434890747,0.010606297291815281,-0.003441206179559231
0.1625,-41.96289638294767,12.821873422633265,53.81190120891906,-0.035387707628217184,0.8144097107579822,0.7816549422311246,35.97904968261719,1.2697274684906006,1.8796477707638815e-09,-1.7955848675314867,46.14636618729104,46.20266668403202,0.9510547518730164,0.3088241219520569,0.010538555681705475,-0.0034220535308122635
0.163,-42.384508073481335,12.807894993874793,53.97228802042353,-0.03563942573092929,0.8144614503766243,0.7815261781321895,36.006526947021484,1.2616982460021973,-1.0596219901515269e-08,-1.808431657234813,46.152472768183635,46.20958203379956,0.9509813785552979,0.30905240774154663,0.0104711027815938,-0.003402926493436098
0.1635,-42.808273598765105,12.79465405836608,54.131684456259386,-0.03589350819817766,0.8145090373869052,0.7813997709227913,36.03368377685547,1.253702998161316,-2.2999614657237544e-08,-1.82140152002747,46.158340664116594,46.216272277784604,0.9509088397026062,0.3092780113220215,0.010403948836028576,-0.003383828792721033
0.164,-43.23420652032734,12.78216039571666,54.29004739148481,-0.036149823932414914,0.8145522899165394,0.7812757008376063,36.060516357421875,1.2457424402236938,-9.202370421235173e-09,-1.8344881028793159,46.16396433522008,46.22273163489212,0.9508370757102966,0.30950093269348145,0.010337102226912975,-0.0033647646196186543
0.1645,-43.662319930105774,12.770423533145905,54.447333689423694,-0.03640823970281525,0.8145910246441562,0.7811539465076469,36.08702850341797,1.2378177642822266,2.924722020125614e-09,-1.8476849548108265,46.1693382590454,46.22895432492782,0.9507661461830139,0.3097211420536041,0.010270572267472744,-0.0033457367680966854
0.165,-44.092626445183356,12.759452740259762,54.60350022282313,-0.036668620195518184,0.8146250568502758,0.7810344849370964,36.11322021484375,1.2299296855926514,-1.2605558374900738e-08,-1.8609855295801363,46.17445693303646,46.23493457076589,0.9506959915161133,0.3099386692047119,0.010204365476965904,-0.003326749661937356
0.1655,-44.52513820297671,12.749257023967395,54.758503895183466,-0.03693082806636477,0.8146542004702667,0.7809172914813988,36.13908767700195,1.2220797538757324,3.694185846114806e-09,-1.8743831884752138,46.17931487698924,46.240666600528456,0.950626790523529,0.3101534843444824,0.010138493031263351,-0.003307805862277746
0.166,-44.95986685687708,12.739845123540665,54.91230166223733,-0.037194723996133855,0.8146782681492297,0.7808023398266737,36.16463088989258,1.2142685651779175,9.934056244276235e-09,-1.887871203210519,46.18390663549346,46.24614464977251,0.9505583047866821,0.31036558747291565,0.010072959586977959,-0.0032889090944081545
0.1665,-45.396823572342456,12.731225505819285,55.064850553554244,-0.03746016674828023,0.8146970712987618,0.780689601970519,36.18984603881836,1.206497073173523,3.9058839718109084e-08,-1.9014427589271672,46.18822678035193,46.251362963680755,0.9504906535148621,0.3105749785900116,0.010007774457335472,-0.003270062617957592
0.167,-45.836019023439114,12.72340636056443,55.21610769424451,-0.03772701322917485,0.8147104201555423,0.7805790482042683,36.21472930908203,1.1987662315368652,-1.5940440079020846e-08,-1.9150909572955974,46.19226991297205,46.25631579925224,0.9504238367080688,0.3107815980911255,0.009942945092916489,-0.0032512699253857136
0.1675,-46.27746338982928,12.716395595963348,55.36603032673738,-0.03799511855084034,0.8147181238416897,0.7804706470967597,36.23929214477539,1.1910773515701294,6.820226161607934e-09,-1.928808819719416,46.19603066672478,46.260997427489244,0.9503579139709473,0.3109855353832245,0.00987847987562418,-0.0032325340434908867
0.168,-46.72116635420089,12.710200834287528,55.51457583260469,-0.038264336096172503,0.8147199904268254,0.7803643654796757,36.26352310180664,1.183430790901184,1.5427342958673762e-08,-1.9425892906389648,46.19950370926605,46.26540213557635,0.9502927660942078,0.31118670105934143,0.009814385324716568,-0.003213857999071479
0.1685,-47.167137100134845,12.704829407706542,55.66170175440282,-0.03853451758663341,0.8147158269917858,0.7802601684345114,36.28742218017578,1.1758277416229248,-1.2394291815098768e-08,-1.9564252409329803,46.20268374481564,46.26952422904811,0.9502284526824951,0.3113851249217987,0.009750667959451675,-0.003195245284587145
0.169,-47.615384310403584,12.70028835426006,55.80736581750351,-0.03880551315239751,0.8147054396939166,0.7801580192812171,36.31099319458008,1.168269157409668,2.4783364693803378e-08,-1.9703094714165073,46.20556551638913,46.27335803394154,0.9501649737358093,0.3115808069705963,0.009687335230410099,-0.003176698461174965
0.1695,-48.06591616569441,12.6965844139899,55.95152595188339,-0.03907717140492767,0.8146886338338857,0.7800578795685644,36.33423614501953,1.1607557535171509,-2.0224698360493676e-08,-1.9842347164330663,46.20814380797825,46.27689789893014,0.9501024484634399,0.31177371740341187,0.009624396450817585,-0.003158221486955881
0.17,-48.51874034375012,12.693724025234133,56.09414031384162,-0.03934933951195392,0.8146652139239405,0.779959709066291,36.35715103149414,1.1532882452011108,-1.6706282579548315e-08,-1.9981936475388973,46.21041344667462,46.28013819743498,0.9500406384468079,0.31196385622024536,0.009561854414641857,-0.0031398162245750427
0.1705,-48.97386401891818,12.691713321085105,56.23516730761474,-0.039621863274822686,0.814634983757547,0.7798634657590491,36.37972640991211,1.145867943763733,9.494667274623225e-09,-2.0121788772769156,46.2123693047335,46.283073329710675,0.949979841709137,0.3121512532234192,0.009499719366431236,-0.003121486399322748
0.171,-49.43129386209954,12.690558126012963,56.374565606855874,-0.03989458720818032,0.8145977464803283,0.779769105842208,36.40196990966797,1.1384950876235962,-1.6809174496756896e-08,-2.0261829630378654,46.21400630157249,46.2856977249016,0.9499198794364929,0.3123358190059662,0.00943799503147602,-0.003103234339505434
0.1715,-49.891036041086686,12.690263952656391,56.51229417594691,-0.040167354621949335,0.8145533046622342,0.7796765837195444,36.42387390136719,1.131170392036438,-2.2025901103006618e-08,-2.040198411005932,46.21531940570153,46.28800584306565,0.9498607516288757,0.31251758337020874,0.009376686997711658,-0.003085062373429537
0.17200000000000001,-50.353096221280325,12.69083599878181,56.64831229110966,-0.04044000770555275,0.8145014603708616,0.7795858520028405,36.445438385009766,1.1238948106765747,1.9440324905417583e-08,-2.0542176801860204,46.216303636580456,46.28999217716233,0.9498024582862854,0.31269654631614685,0.009315802715718746,-0.0030669737607240677
0.17250000000000001,-50.81747956677315,12.692279144412508,56.782579561283896,-0.040712387614336244,0.8144420152458519,0.7794968615134317,36.466670989990234,1.1166692972183228,-1.2000653804022932e-08,-2.06823318650962,46.21695406640011,46.29165125500178,0.9497451782226562,0.3128727078437805,0.009255347773432732,-0.0030489712953567505
0.17300000000000001,-51.28419074178825,12.694597949128708,56.91505594873799,-0.040984334558134626,0.8143747705742757,0.7794095612857145,36.4875602722168,1.1094942092895508,-1.2127437720721446e-08,-2.0822373070161766,46.217265821783606,46.292977641151744,0.9496886730194092,0.31304603815078735,0.009195326827466488,-0.0030310573056340218
0.17350000000000002,-51.75323391245945,12.697796649539832,57.045701789378704,-0.04125568789192429,0.8142995273669398,0.77932389857264,36.50810623168945,1.102370023727417,-3.020685923615929e-08,-2.0962223841066217,46.21723408540478,46.29396593879992,0.9496330618858337,0.31321650743484497,0.009135745465755463,-0.0030132338870316744
0.17400000000000002,-52.224612748940004,12.701879156929769,57.17447781272641,-0.04152628620849996,0.8142160864355171,0.7792398188532084,36.5283203125,1.0952980518341064,-3.752857136163357e-09,-2.1101807298656974,46.216854097520084,46.2946107915683,0.9495784640312195,0.31338417530059814,0.009076610207557678,-0.002995503833517432
0.17450000000000002,-52.69833042782539,12.70684905507599,57.30134516152167,-0.04179596743310938,0.8141242484704296,0.7791572658419715,36.54819107055664,1.0882781744003296,1.1241401587369637e-08,-2.1241046304495117,46.2161211574117,46.2949068852774,0.9495246410369873,0.3135489821434021,0.009017923846840858,-0.0029778697062283754
0.17500000000000002,-53.17438963487562,12.712709598243386,57.42626541092918,-0.04206456891997606,0.8140238141193931,0.7790761815005577,36.56770706176758,1.0813113451004028,-3.2398656202303755e-08,-2.137986350534678,46.215030624738624,46.294848949657364,0.9494717121124268,0.31371092796325684,0.008959691040217876,-0.0029603338334709406
0.17550000000000002,-53.652792568021894,12.719463709353201,57.54920058730619,-0.042331927550636445,0.8139145840665389,0.7789965060512128,36.58689498901367,1.0743982791900635,1.856965803348487e-09,-2.151818137825293,46.21357792079369,46.29443176000382,0.9494197964668274,0.31387004256248474,0.008901918306946754,-0.0029428978450596333
0.176,-54.13354094064203,12.727113978327854,57.67011318650092,-0.04259787983401413,0.813796359112032,0.7789181779923686,36.60572814941406,1.0675392150878906,4.540590570201175e-09,-2.1655922276138906,46.21175852966392,46.29365013877594,0.9493686556816101,0.31402626633644104,0.008844608440995216,-0.0029255645349621773
0.1765,-54.616635985088294,12.735662660611826,57.78896619164818,-0.042862262008150465,0.813668940252092,0.7788411341162241,36.624210357666016,1.0607346296310425,-1.6043095740769786e-08,-2.1793008473924558,46.20956799929241,46.29249895713472,0.9493184685707092,0.31417956948280334,0.00878776516765356,-0.0029083353001624346
0.177,-55.10207845645132,12.745111675869138,57.905723090430044,-0.04312491014350653,0.8135321287593392,0.7787653095283382,36.64234924316406,1.0539854764938354,-3.938243509082895e-09,-2.1929362215094153,46.20700194243998,46.29097313641923,0.9492692947387695,0.31433001160621643,0.00873139500617981,-0.0028912127017974854
0.1775,-55.58986863654347,12.75546260685742,58.02034789176923,-0.04338566024774954,0.8133857262633684,0.778690637669218,36.66013717651367,1.04729163646698,8.917793614671155e-09,-2.206490575868571,46.20405603754463,46.28906764955909,0.9492209553718567,0.3144775331020355,0.008675497956573963,-0.0028741981368511915
0.178,-56.08000633808406,12.76671669847896,58.132805141921764,-0.04364434837193253,0.8132295348314761,0.7786170503378895,36.67757034301758,1.0406540632247925,-1.4435626916053934e-08,-2.2199561426657697,46.2007260294781,46.28677752242127,0.949173629283905,0.3146221339702606,0.008620080538094044,-0.0028572941664606333
0.1785,-56.57249090906953,12.778874857008415,58.24305993994163,-0.043900810717972916,0.813063357049441,0.7785444777174236,36.69464874267578,1.0340725183486938,-1.2661827142324e-08,-2.2333251651590786,46.19700773019792,46.28409783508981,0.9491270780563354,0.31476375460624695,0.008565142750740051,-0.002840501256287098
0.179,-57.067321237310274,12.791937649497351,58.351077952483784,-0.04415488374733305,0.8128869961022843,0.778472848402405,36.71138000488281,1.0275483131408691,-1.682387740231661e-08,-2.2465899024681693,46.192897019294385,46.28102372307661,0.9490817189216614,0.31490248441696167,0.008510692045092583,-0.002823822433128953
0.1795,-57.564495755117036,12.805905303355365,58.45682542791838,-0.044406404290803336,0.8127002558549103,0.7784020894283092,36.727752685546875,1.0210808515548706,-2.0917235943329615e-08,-2.259742634398607,46.18838984443146,46.27755037846207,0.9490370750427246,0.3150382339954376,0.008456726558506489,-0.0028072583954781294
0.18,-58.064012444118205,12.82077770610733,58.560269209727736,-0.044655209659284746,0.8125029409325544,0.7783321263027546,36.743770599365234,1.0146712064743042,-1.314558151221945e-08,-2.2727756662866505,46.1834822216819,46.27367305096459,0.9489935040473938,0.3151710629463196,0.008403251878917217,-0.0027908114716410637
0.1805,-58.56586884019056,12.83655440532666,58.66137674915789,-0.044901137755466246,0.8122948568009378,0.7782628830386032,36.759429931640625,1.00831937789917,-1.6016732828916247e-08,-2.2856813338601722,46.17817023575541,46.26938704893734,0.9489509463310242,0.3153008818626404,0.008350269868969917,-0.002774482360109687
0.181,-59.07006203848502,12.853234608743872,58.76011611709989,-0.04514402718628984,0.812075809846062,0.7781942821888678,36.77473068237305,1.002025842666626,-4.57377780094248e-08,-2.298452008111289,46.1724500401209,46.26468774029173,0.948909342288971,0.3154277205467224,0.008297782391309738,-0.002758272923529148
0.1815,-59.576588698529896,12.870817184529985,58.85645601517549,-0.04538371737609362,0.8118456074535396,0.7781262448833813,36.789669036865234,0.995790421962738,-3.509064328000022e-08,-2.3110801001762717,46.16631785702233,46.2595705533465,0.9488686919212341,0.3155515789985657,0.008245791308581829,-0.0027421843260526657
0.182,-60.085445049392625,12.8893006617541,58.95036578600398,-0.04562004868032178,0.8116040580873948,0.7780586908671908,36.80424118041992,0.9896134734153748,-4.114025387025322e-08,-2.3235580662183035,46.15976997738915,46.25403097760193,0.9488288760185242,0.3156723976135254,0.008194297552108765,-0.0027262174990028143
0.1825,-60.59662689488377,12.908683231014367,59.04181542262719,-0.045852862499687924,0.8113509713682382,0.7779915385406253,36.81845474243164,0.9834956526756287,-7.226597542597801e-09,-2.3358784123086376,46.1528027606416,46.2480645644382,0.9487901926040649,0.31579023599624634,0.008143304847180843,-0.0027103740721940994
0.183,-61.11012961878414,12.928962745241437,59.13077557707348,-0.04608200139467739,0.8110861581507417,0.7779247050009857,36.83230972290039,0.9774367213249207,-2.358485318154635e-08,-2.348033699301766,46.14541263439205,46.24166692773784,0.9487524628639221,0.31590506434440613,0.008092813193798065,-0.0026946552097797394
0.1835,-61.62594819007807,12.950136720673735,59.217217568040866,-0.04630730920027152,0.8108094306003333,0.7778581060858067,36.84579086303711,0.9714370369911194,-4.427185018585078e-08,-2.360016547700138,46.13759609404355,46.23483374443168,0.9487157464027405,0.31601682305336,0.008042823523283005,-0.002679061610251665
0.184,-62.144077168176004,12.972202338003076,59.30111338768117,-0.046528631140776884,0.8105206022690289,0.7777916564176355,36.85890579223633,0.9654967188835144,-3.860044373027449e-08,-2.371819642504091,46.129349702286554,46.227560754968174,0.9486799836158752,0.3161255419254303,0.007993337698280811,-0.0026635942049324512
0.1845,-62.664510708108956,12.995156443689938,59.38243570747146,-0.046745813944640564,0.810219488170327,0.7777252694502638,36.87165832519531,0.9596157073974609,1.2757240597238706e-08,-2.3834357380426194,46.12067008849559,46.21984376370576,0.9486452341079712,0.31623122096061707,0.007944355718791485,-0.0026482536923140287
0.185,-63.187242565677984,13.018995551446945,59.461157883156105,-0.046958705959132,0.8099059048530924,0.7776588575163582,36.8840217590332,0.953794002532959,-2.7297755167410287e-08,-2.3948576627806677,46.111553948027684,46.21167863922881,0.9486113786697388,0.3163337707519531,0.007895877584815025,-0.002633041236549616
0.1855,-63.7122661025433,13.043715843889263,59.53725395874964,-0.04716715726477121,0.8095796704743509,0.7775923318764235,36.896026611328125,0.9480321407318115,-3.322745456557641e-08,-2.406078324098689,46.10199804142401,46.20306131458657,0.9485786557197571,0.31643328070640564,0.007847905158996582,-0.0026179575361311436
0.186,-64.23957429123597,13.069313174350564,59.61069866958917,-0.04737101978938233,0.8092406048709256,0.7775256027690322,36.90766143798828,0.9423298835754395,1.1168546976136895e-08,-2.417090713040219,46.09199919351718,46.193987787455896,0.9485469460487366,0.31652969121932983,0.007800437975674868,-0.002603002591058612
