Time,Gyro_X,Gyro_Y,Gyro_Z,Acc_X,Acc_Y,Acc_Z,Euler_X,Euler_Y,Euler_Z,Tilt_X,Tilt_Y,Tilt_Z,Quat_W,Quat_X,Quat_Y,Quat_Z
0.0,25.468605642824702,-2.6887022633786772,5.215216527608377,0.0941259021228465,0.3194930848933059,0.9162031652007219,0.10660654306411743,-0.029002666473388672,1.1903804331137025e-10,5.540691229922042,19.13106870359549,19.977862026268742,0.9999995231628418,0.0009303175029344857,-0.0002530959318391979,2.3546073180114035e-07
0.0005001147052076164,25.46851287705265,-2.688816227767149,5.215403045205266,0.09412629512874461,0.3194940247929576,0.9161981575390167,0.21269668638706207,-0.05786971002817154,-5.112447687416477e-10,5.540739296409557,19.13121607141969,19.978018516913288,0.9999982118606567,0.0018561272881925106,-0.0005050076288171113,9.373556508762704e-07
0.0010002294104152329,25.467802462519913,-2.6889532162596828,5.215267925557287,0.09412247861105799,0.31949792885337513,0.9161891761945041,0.31827351450920105,-0.08660047501325607,-2.5189919594659216e-11,5.540556863736886,19.131612461011983,19.978346151479272,0.9999958872795105,0.002777456073090434,-0.0007557287462987006,2.09901190828532e-06
0.0015003441156228492,25.466475285289878,-2.689113009862012,5.214812576392874,0.09411446407617197,0.31950479136490306,0.9161762223929278,0.42334020137786865,-0.11519429832696915,-1.942396937737456e-11,5.540144601526791,19.132257518142694,19.97884480112606,0.9999926686286926,0.0036943298764526844,-0.0010052528232336044,3.7137626804906176e-06
0.0020004588208304658,25.46453231880747,-2.6892951240926672,5.214038823601896,0.09410226447151346,0.31951460419793587,0.9161593029302062,0.5278999209403992,-0.14365054666996002,-3.032124273882886e-10,5.53950323363346,19.1331506485736,19.979514134445168,0.9999886751174927,0.004606775939464569,-0.0012535738060250878,5.774996225227369e-06
0.0025005735260380823,25.461974625161478,-2.689498809709107,5.212948909591764,0.09408589419844915,0.3195273568075243,0.9161384301536614,0.6319557428359985,-0.17196856439113617,-3.2008123929117005e-10,5.538633539041135,19.134291018597178,19.98035361810283,0.9999837279319763,0.005514820106327534,-0.001500685466453433,8.276142580143642e-06
0.0030006882312456984,25.45880335643032,-2.6897230538217776,5.211545491053138,0.0940653691250043,0.3195430362410385,0.9161136219357238,0.7355107665061951,-0.20014776289463043,4.4347834432523214e-11,5.537536352807239,19.135677555861914,19.981362517745417,0.9999778866767883,0.006418488919734955,-0.0017465818673372269,1.1210664524696767e-05
0.003500802936453315,25.455019756108914,-2.6899665813935507,5.209831636136123,0.09404070659837264,0.31956162714886666,0.916084901640166,0.838568389415741,-0.22818753123283386,-2.4515034446892514e-10,5.536212567047805,19.137308950482126,19.982539899165488,0.999971330165863,0.007317809388041496,-0.001991257071495056,1.4572055079042912e-05
0.0040009176416609315,25.450625160614393,-2.6902278571213754,5.2078108210386835,0.09401192545718871,0.3195831117981304,0.9160522980809471,0.9411312937736511,-0.25608721375465393,-4.2971950997561237e-10,5.534663131962799,19.139183656430315,19.983884629726,0.9999638199806213,0.008212806656956673,-0.0022347052581608295,1.83538631972624e-05
0.004501032346868548,25.445621000868346,-2.6905050876964345,5.205486926009916,0.09397904604352868,0.3196074700893945,0.9160158454737338,1.0432028770446777,-0.28384631872177124,-5.182202444942163e-10,5.532889056898699,19.14129989321038,19.985395380040433,0.9999555945396423,0.009103508666157722,-0.002476921072229743,2.2549669665750116e-05
0.005001147052076165,25.440008803951837,-2.690796224438546,5.202864230771491,0.09394209021460657,0.3196346795763343,0.9159755833801949,1.1447858810424805,-0.3114641308784485,-4.163856481831374e-10,5.530891411445503,19.14365564780883,19.987070625905435,0.9999464750289917,0.009989937767386436,-0.0027178984601050615,2.715308619372081e-05
0.005501261757283781,25.433790194830664,-2.691098966300006,5.199947409361416,0.09390108135412717,0.31966471548833425,0.9159315566451678,1.2458833456039429,-0.33894020318984985,-4.994350766285294e-11,5.528671326564927,19.14624867692172,19.988908650483065,0.9999365210533142,0.010872121900320053,-0.0029576322995126247,3.2157779060071334e-05
0.006001376462491397,25.4269668981472,-2.691410763233479,5.196741524405142,0.0938560443832573,0.3196975507559684,0.9158838153268059,1.3464986085891724,-0.36627399921417236,-3.622244448830969e-10,5.526229995746536,19.149076509453728,19.99090754672859,0.9999259114265442,0.011750086210668087,-0.0031961174681782722,3.755743455258198e-05
0.006501491167699013,25.419540740074645,-2.691728819918123,5.193252020819708,0.09380700577117479,0.3197331560393279,0.9158324146198288,1.4466341733932495,-0.3934648036956787,-3.397807868399383e-10,5.5235686761882,19.15213644928658,19.993065220060384,0.9999144077301025,0.012623855844140053,-0.0034333481453359127,4.334580080467276e-05
0.00700160587290663,25.41151365023041,-2.6920500998374965,5.189484718957461,0.09375399354515025,0.31977149975914004,0.9157774147720064,1.5462937355041504,-0.42051225900650024,-2.0865098537825588e-10,5.5206886899970256,19.155425578312595,19.99537939126719,0.9999022483825684,0.013493457809090614,-0.003669319674372673,4.951664959662594e-05
0.0075017205781142465,25.402887663643572,-2.6923713297023726,5.185445807196761,0.09369703730011869,0.31981254813063,0.9157188809940118,1.645479679107666,-0.447415828704834,-7.618280450927273e-10,5.5175914254068585,19.158940759729763,19.99784759964861,0.9998893737792969,0.014358916319906712,-0.0039040271658450365,5.6063796364469454e-05
0.008001835283321863,25.3936649227725,-2.692689004211077,5.1811418339876685,0.09363616820769247,0.31985626520006516,0.9156568833628023,1.7441946268081665,-0.47417476773262024,-6.413239383995517e-10,5.514278338008029,19.16267864159369,20.000467206383515,0.9998756051063538,0.015220253728330135,-0.004137464798986912,6.298109656199813e-05
0.008501949988529479,25.383847679567562,-2.692999391139437,5.176579699361558,0.0935714190245686,0.3199026128839237,0.9155914967186733,1.8424423933029175,-0.5007889866828918,2.1935135999240352e-11,5.510750951985078,19.166635660622113,20.00323539812177,0.9998612403869629,0.016077497974038124,-0.004369629546999931,7.026246021268889e-05
0.009002064693737096,25.373438297574204,-2.6932985367520677,5.171766645914306,0.09350282410027981,0.31995155101061795,0.9155228005561691,1.9402250051498413,-0.52725750207901,5.026780103278838e-10,5.507010861357788,19.170808046246638,20.006149190793103,0.9998460412025452,0.01693067140877247,-0.004600514657795429,7.790180097799748e-05
0.009502179398944712,25.36243925407089,-2.693582271526133,5.166710249273355,0.09343041938423821,0.32000303736470714,0.9154508789090144,2.037546157836914,-0.5535802841186523,-7.972400517530787e-10,5.503059731220817,19.17519182490677,20.009205433627972,0.9998302459716797,0.017779801040887833,-0.004830117337405682,8.589310164097697e-05
0.01000229410415233,25.350853142237018,-2.693846216178451,5.161418408059876,0.09335424243201894,0.3200570277335229,0.9153758202292518,2.1344079971313477,-0.5797566771507263,-2.484318306628097e-10,5.498899298977049,19.17978282458057,20.012400813384158,0.9998137354850769,0.018624907359480858,-0.005058432463556528,9.42303886404261e-05
0.010502408809359945,25.3386826733447,-2.694085787986246,5.155899333357815,0.09327433241083004,0.3201134759561342,0.9152977172607899,2.2308130264282227,-0.6057862639427185,6.444254574411445e-10,5.494531375559527,19.184576679546023,20.01573185877266,0.9997965693473816,0.019466016441583633,-0.005285455845296383,0.00010290771024301648
0.011002523514567562,25.32593067896926,-2.6942962073915857,5.150161537702404,0.09319073010411301,0.32017233397456707,0.9152166669075456,2.3267648220062256,-0.6316684484481812,-1.944281124988123e-10,5.489957846636826,19.18956883536695,20.01919494507648,0.999778687953949,0.02030315063893795,-0.00551118329167366,0.00011191915109520778
0.011502638219775178,25.31260011321202,-2.6944725048790907,5.144213823601402,0.09310347791521938,0.3202335518872013,0.9151327700964047,2.4222655296325684,-0.6574029922485352,-2.0914675546990225e-10,5.485180673796514,19.194754554097205,20.022786298955435,0.9997601509094238,0.021136334165930748,-0.0057356106117367744,0.0001212588613270782
0.012002752924982794,25.298694054929772,-2.6946095281161626,5.138065271603036,0.09301261987010513,0.32029707800425,0.9150461316351965,2.5173182487487793,-0.6829893589019775,-9.223743990816047e-10,5.480201895701291,19.200128919696187,20.026502003429815,0.9997409582138062,0.021965589374303818,-0.00595873361453414,0.00013092100562062114
0.012502867630190411,25.284215709964506,-2.6947019493446995,5.131725227925216,0.09291820161898798,0.32036285890524063,0.9149568600659235,2.6119251251220703,-0.7084272503852844,3.442062468383966e-10,5.475023629212249,19.205686843648863,20.030338003035713,0.9997211694717407,0.02279093861579895,-0.006180549040436745,0.00014089980686549097
0.013002982335398027,25.26916841336718,-2.694744273012857,5.125203291661363,0.09282027043690803,0.32043083949839773,0.9148650675134606,2.7060892581939697,-0.7337162494659424,-6.096608218264521e-10,5.469648070473634,19.211423070782818,20.03429010914424,0.9997007250785828,0.023612404242157936,-0.006401053164154291,0.00015118949522729963
0.013503097040605644,25.253555631609146,-2.6947308436352047,5.118509301578695,0.09271887522313571,0.3205009630818372,0.9147708695299606,2.7998127937316895,-0.7588558793067932,-1.4101355638729274e-09,5.4640774959534895,19.217332185275012,20.038354005437085,0.9996796250343323,0.024430010467767715,-0.0066202422603964806,0.00016178441001102328
0.01400321174581326,25.2373809647748,-2.6946558538693055,5.111653322525533,0.0926140664993688,0.3205731714064716,0.9146743849352066,2.8930985927581787,-0.783845841884613,1.41365230632573e-09,5.458314263434387,19.223408616840192,20.042525253530158,0.999657928943634,0.02524377591907978,-0.0068381126038730145,0.00017267886141780764
0.014503326451020877,25.220648148728763,-2.694513352796505,5.104645631464735,0.0925058964066613,0.32064740474052855,0.9145757356531529,2.9859490394592285,-0.808685839176178,2.9525543121522446e-10,5.452360812948563,19.22964664709307,20.04679929873734,0.999635636806488,0.02605372481048107,-0.007054661400616169,0.0001838672033045441
0.015003441156228493,25.203361057251158,-2.694297254394494,5.0974967031509415,0.09239441870102738,0.3207236019355772,0.9144750465449026,3.078366756439209,-0.8333755135536194,-7.260823053911736e-10,5.4462196676516665,19.23604041607578,20.051171475965692,0.9996127486228943,0.02685987949371338,-0.007269885390996933,0.00019534389139153063
0.01550355586143611,25.185523704134106,-2.694001346188967,5.0902171954698785,0.09227968874766451,0.3208017004939647,0.9143724452383822,3.1703550815582275,-0.8579146862030029,-1.51252577129668e-09,5.439893434629355,19.242583928942214,20.055637015733726,0.9995893836021423,0.027662260457873344,-0.00748378224670887,0.00020710336684715003
0.016003670566643726,25.16714024523296,-2.6936192980715687,5.082817934458494,0.09216176351374006,0.32088163663754776,0.9142680619549574,3.2619144916534424,-0.8823025226593018,-3.035005580187544e-10,5.433384805631059,19.249271062790154,20.060191050303743,0.9995653033256531,0.02846088632941246,-0.007696347311139107,0.00021914012904744595
0.016503785271851344,25.148214980465433,-2.6931446712710767,5.075309899025205,0.09204070155968695,0.3209633453776228,0.9141620293332642,3.353048324584961,-0.9065393805503845,-2.3251698344495253e-09,5.426696557725151,19.256095573632532,20.064828619919513,0.9995406866073608,0.029255777597427368,-0.007907579652965069,0.00023144867736846209
0.017003899977058957,25.128752355752095,-2.6925709274647325,5.0677042053900605,0.09191656302895554,0.32104676058593756,0.914054482250506,3.4437592029571533,-0.9306244254112244,1.4928184244311637e-09,5.419831553869953,19.263051103498302,20.069544679140126,0.9995155334472656,0.03004695475101471,-0.008117474615573883,0.00024402362760156393
0.017504014682266575,25.108756964891384,-2.6918914380164045,5.060012091264984,0.09178940963616938,0.3211318150666808,0.9139455576414945,3.5340490341186523,-0.9545578360557556,-3.2470270916462596e-09,5.412792743394946,19.270131187653593,20.0743341032607,0.9994897842407227,0.030834438279271126,-0.008326031267642975,0.00025685952277854085
0.018004129387474192,25.08823355136256,-2.691099493328266,5.0522448997948475,0.09165930465363513,0.321218440629335,0.913835394315696,3.6239206790924072,-0.9783391952514648,2.7106783484498465e-09,5.405583162386773,19.277329261933385,20.079191694810703,0.9994636178016663,0.03161824867129326,-0.008533247746527195,0.00026995118241757154
0.01850424409268181,25.06718701005022,-2.6901883122925225,5.044414063280399,0.0915263128961575,0.3213065681622859,0.9137241327725494,3.7133750915527344,-1.001968264579773,2.795758513585156e-09,5.39820593397463,19.284638670174246,20.084112190120493,0.9994367957115173,0.03239840269088745,-0.00873912125825882,0.00028329313499853015
0.019004358797889424,25.04562238888347,-2.6891510518297363,5.036531086704542,0.09139050070411263,0.32139612770707376,0.9136119150153404,3.8024160861968994,-1.0254448652267456,1.4626337918599575e-09,5.390664268509775,19.29205267173761,20.089090265946325,0.9994094967842102,0.03317492455244064,-0.008943649008870125,0.00029688020003959537
0.01950447350309704,25.02354489038382,-2.687980816500199,5.028607531083751,0.09125193592473611,0.3214870485331764,0.9134988843638893,3.8910446166992188,-1.0487685203552246,-4.228626337976493e-09,5.382961463634149,19.299564449113976,20.094120546144342,0.9993816614151001,0.03394782915711403,-0.009146829135715961,0.00031070708064362407
0.02000458820830466,25.00095987311511,-2.686670668174868,5.020654996666826,0.0911106878915827,0.3215792592132122,0.913385185266335,3.979264259338379,-1.0719397068023682,2.360632800346707e-09,5.375100904233085,19.307167115597377,20.099197608383783,0.9993534088134766,0.0347171351313591,-0.009348662570118904,0.00032476880005560815
0.020504702913512272,24.977872853029393,-2.6852136357523277,5.012685106003427,0.09096682740211848,0.3216726876984514,0.9132709631102831,4.067076206207275,-1.0949578285217285,-1.6457779583589627e-09,5.367086062267409,19.31485372301997,20.1043159908897,0.9993246793746948,0.03548286110162735,-0.009549145586788654,0.00033905997406691313
0.02100481761871989,24.95428950470287,-2.683602724908334,5.004709486905043,0.09082042669340835,0.3217672613945243,0.9131563640335919,4.154480934143066,-1.117822289466858,1.4033225692600126e-09,5.358920496480342,19.32261726953604,20.10947019920528,0.9992953538894653,0.03624501824378967,-0.009748275391757488,0.00035357556771487
0.021504932323927507,24.93021566245579,-2.681830927864515,4.996739755321495,0.09067155941586542,0.32186290723721617,0.913041534735066,4.241481304168701,-1.140533685684204,1.7192975931834553e-09,5.35060785197491,19.330450707444964,20.114654712964082,0.9992655515670776,0.03700362518429756,-0.00994605291634798,0.0003683105460368097
0.022005047029135125,24.905657321350624,-2.679891233162901,4.988787498156087,0.09052030060503025,0.3219595517682396,0.912926622285331,4.3280816078186035,-1.1630916595458984,-3.0223865632450497e-09,5.342151859657698,19.338346951042325,20.119863992662268,0.9992353916168213,0.037758711725473404,-0.010142477229237556,0.0003832599031738937
0.02250516173434274,24.880620638063135,-2.677776635433046,4.980864256042748,0.0903667266513536,0.3220571212108728,0.9128117739381528,4.414281845092773,-1.1854963302612305,1.471529342822464e-09,5.333556335545164,19.346298884488412,20.125092486420993,0.9992047548294067,0.0385102853178978,-0.010337546467781067,0.0003984187205787748
0.023005276439550356,24.855111931620797,-2.6754801451386494,4.9729815061088,0.09021091526795719,0.32215554154536286,0.9126971369424729,4.500082492828369,-1.207746982574463,1.4959871119657464e-09,5.324825179928824,19.354299369683552,20.130334636729387,0.9991735816001892,0.03925835341215134,-0.010531259700655937,0.00041378187597729266
0.023505391144757973,24.829137684003534,-2.672994798290695,4.96515064474689,0.09005294545635217,0.32225473858397596,0.9125828583554154,4.585486888885498,-1.2298439741134644,-1.2376790703427787e-09,5.315962376396121,19.36234125413892,20.135584887157925,0.9991419315338135,0.04000294208526611,-0.010723616927862167,0.0004293446254450828
0.024005505849965587,24.802704540601855,-2.6703136661142897,4.957382970419879,0.0898928974700984,0.32235463804560294,0.9124690848565359,4.670497417449951,-1.2517874240875244,2.0878887507791433e-09,5.306971990703822,19.370417378832553,20.140837689033013,0.9991098642349243,0.04074406623840332,-0.010914618149399757,0.00044510213774628937
0.024505620555173205,24.775819310527496,-2.6674298646565973,4.949689666522495,0.08973085277639035,0.32245516562980514,0.9123559625635664,4.755115509033203,-1.2735774517059326,-2.61822918901089e-09,5.297858169501285,19.37852058603911,20.14608750806253,0.9990774393081665,0.04148174449801445,-0.011104264296591282,0.0004610495816450566
0.025005735260380822,24.74848896677254,-2.6643365643234,4.9420817843235145,0.08956689401556096,0.3225562470902056,0.9122436368499003,4.839343070983887,-1.2952136993408203,1.1788646725463536e-09,5.288625138901249,19.38664372712306,20.15132883090341,0.9990445971488953,0.0422159843146801,-0.011292553506791592,0.0004771821841131896
0.02550584996558844,24.720720646212307,-2.661026999332074,4.93457022601236,0.08940110495849743,0.3226578083071238,0.912132252164086,4.923181533813477,-1.316696286201477,-3.9644509897129865e-10,5.279277202895935,19.394779670284077,20.15655617166124,0.9990113377571106,0.04294680804014206,-0.011479486711323261,0.0004934952012263238
0.026005964670796054,24.692521649448434,-2.6574944770689783,4.927165727873814,0.08923357046196817,0.3227597753593549,0.9120219518515563,5.006631374359131,-1.3380253314971924,-7.866511886334138e-09,5.26981874161689,19.40292130824398,20.161764078312785,0.9989776611328125,0.043674223124980927,-0.011665064841508865,0.0005099839763715863
0.02650607937600367,24.66389944048834,-2.6537323873395104,4.919878843614656,0.0890643764218631,0.3228620745950006,0.9119128779788443,5.089694976806641,-1.3592004776000977,1.3536348708598211e-09,5.2602542094370515,19.411061565864713,20.166947139042293,0.9989435076713562,0.044398240745067596,-0.011849286034703255,0.0005266438820399344
0.02700619408121129,24.634861646257793,-2.649734211499321,4.912719927865693,0.08889360972435549,0.32296463270125586,0.9118051711605112,5.172374725341797,-1.3802224397659302,-5.787777368482239e-09,5.250588132914181,19.419193407686585,20.172099988482298,0.998909056186676,0.04511888697743416,-0.012032154016196728,0.000543470261618495
0.027506308786418906,24.605416055943326,-2.64549353145549,4.90569911988276,0.08872135819499578,0.3230673767730634,0.9116989703890342,5.254671096801758,-1.4010907411575317,2.800135678882043e-09,5.240825108574789,19.42730984537611,20.177217313850054,0.9988741278648376,0.04583616554737091,-0.012213666923344135,0.0005604586913250387
0.02800642349162652,24.575570620161994,-2.6410040385267455,4.898826327469923,0.08854771054575516,0.323170234380546,0.9115944128678488,5.336587429046631,-1.4218060970306396,1.468354327016641e-09,5.230969800538589,19.435403945073656,20.18229386097111,0.9988389015197754,0.046550098806619644,-0.01239382941275835,0.0005776046309620142
0.028506538196834137,24.545333449955777,-2.6362595421520956,4.8921112111479115,0.08837275632003758,0.3232731336351338,0.9114916338477905,5.418123722076416,-1.4423683881759644,3.118215241570965e-09,5.221026937983303,19.44346883463007,20.18732444018116,0.9988033175468445,0.04726069048047066,-0.012572640553116798,0.0005949035985395312
0.029006652902041755,24.51471281560869,-2.631253978437621,4.885563168590725,0.08819658583568797,0.32337600325430327,0.9113907664671318,5.499281883239746,-1.4627779722213745,-2.2974939728470645e-09,5.21100131245057,19.451497710722688,20.192303932098067,0.9987673759460449,0.047967955470085144,-0.012750103138387203,0.0006123511702753603
0.02950676760724937,24.48371714528461,-2.6259814185314094,4.879191319352826,0.08801929012602418,0.3234787726248493,0.9112919415954148,5.580060958862305,-1.483034372329712,-3.67966317138535e-11,5.200897774993737,19.459483845840797,20.19722729325601,0.9987309575080872,0.0486719012260437,-0.012926215305924416,0.0006299429223872721
0.030006882312456986,24.45235502348456,-2.620436076817042,4.8730044899093174,0.08784096087892884,0.32358137186461694,0.9111952876812908,5.660465717315674,-1.503138780593872,-3.1510849485272274e-09,5.190721233168871,19.46742059513091,20.20208956159377,0.9986943006515503,0.04937255010008812,-0.013100984506309032,0.0006476746639236808
0.030506997017664603,24.42063518932212,-2.6146123189163353,4.867011199030994,0.08766169037403955,0.32368373188261457,0.9111009306045429,5.740496635437012,-1.5230908393859863,3.389966973799119e-09,5.18047664787069,19.475301403092278,20.206885861789473,0.9986572861671448,0.050069909542798996,-0.01327440980821848,0.0006655421457253397
0.03100711172287222,24.388566534616142,-2.608504669492408,4.8612196435158,0.08748157141808159,0.3237857844374474,0.9110089935324709,5.820154190063477,-1.5428909063339233,1.0047479515051805e-09,5.170169030015612,19.483119810114076,20.211611410434976,0.9986199736595154,0.050763990730047226,-0.01344649400562048,0.0006835410022176802
0.031507226428079835,24.356158101800567,-2.6021078198445107,4.855637684297968,0.08730069727839136,0.32388746219399683,0.910919596780831,5.899440765380859,-1.5625394582748413,-4.624467475622396e-09,5.159803437074249,19.49086945884448,20.21626152104194,0.9985823035240173,0.051454804837703705,-0.013617239892482758,0.0007016671588644385
0.03200734113328745,24.32341908165084,-2.595416635286447,4.850272832955553,0.08711916161468362,0.3239886987782904,0.9108328576794715,5.97835636138916,-1.5820364952087402,1.5874330738796516e-09,5.149384969456455,19.4985441003839,20.2208316088737,0.9985443353652954,0.05214236304163933,-0.013786649331450462,0.0007199164247140288
0.03250745583849507,24.29035881082735,-2.5884261623007387,4.845132238636622,0.08693705840912037,0.32408942883049724,0.9107488904428376,6.056900501251221,-1.6013820171356201,8.409550389387732e-09,5.138918766752102,19.50613760029342,20.22531719559585,0.9985058903694153,0.052826665341854095,-0.013954724185168743,0.0007382846670225263
0.03300757054370269,24.256986769236445,-2.5811316354611646,4.840222675424042,0.08675448189474327,0.32418958805599973,0.9106678060454931,6.135078430175781,-1.6205772161483765,-2.2195085769283196e-09,5.128410003831317,19.513643944410802,20.22971391373962,0.9984672665596008,0.053507737815380096,-0.014121470972895622,0.0007567678694613278
0.033507685248910304,24.223312577209782,-2.5735284841165917,4.835550530158032,0.08657152648233611,0.32428911327448356,0.9105897121027834,6.212889671325684,-1.6396222114562988,3.831465367198916e-09,5.117863886808337,19.5210572444663,20.234017510972325,0.9984283447265625,0.05418558791279793,-0.014286891557276249,0.000775362248532474
0.034007799954117915,24.189345992503352,-2.5656123388294985,4.831121790735361,0.08638828668578873,0.3243879424670022,0.9105147127567987,6.290334701538086,-1.6585173606872559,3.924135238975168e-09,5.107285648873311,19.528371743490737,20.238223854168883,0.9983891248703003,0.05486021935939789,-0.014450989663600922,0.0007940636132843792
0.03450791465932553,24.155096907117727,-2.5573790375629564,4.826942034903304,0.08620485704603793,0.3244860148209684,0.9104429085677311,6.367415428161621,-1.6772630214691162,-4.585735791096113e-09,5.096680545997099,19.53558182100921,20.242328933279786,0.9983496069908142,0.05553164705634117,-0.014613769017159939,0.000812868180219084
0.03500802936453315,24.120575343941397,-2.5488246316102474,4.8230164195659695,0.08602133205366401,0.32458327077303517,0.9103743964107583,6.444133281707764,-1.6958600282669067,3.954648553072815e-10,5.086053852514091,19.542681998013602,20.246328864990357,0.9983099102973938,0.05619988217949867,-0.014775236137211323,0.0008317722822539508
0.03550814406974077,24.085791453219624,-2.539945391261733,4.819349670619933,0.0858378060702283,0.32467965204982463,0.9103092693785475,6.520487308502197,-1.714308261871338,-2.743613392031108e-10,5.075410856588802,19.549666941707724,20.250219896166875,0.9982698559761047,0.05686492100358009,-0.014935391023755074,0.0008507717866450548
0.036008258774948385,24.050755508851097,-2.5307378112039585,4.815946073335503,0.08565437324843955,0.3247751017064754,0.9102476166894807,6.596480369567871,-1.7326083183288574,-1.0254950666421792e-08,5.064756855572131,19.55653147001926,20.25399840708551,0.9982295036315918,0.057526785880327225,-0.015094240196049213,0.0008698631427250803
0.036508373480156,24.01547790451567,-2.5211986156464254,4.812809463299198,0.0854711274512394,0.32486956416297585,0.9101895236016813,6.672111988067627,-1.7507609128952026,7.391727230299239e-10,5.054097151253499,19.563270555873167,20.257660914440272,0.9981889128684998,0.058185480535030365,-0.01525178737938404,0.0008890427416190505
0.03700848818536362,23.979969149636133,-2.5113247631718454,4.809943217932367,0.08528816216990455,0.3249629852382587,0.9101350713329186,6.747384548187256,-1.7687665224075317,1.0699724661833443e-08,5.043437045015569,19.56987933122146,20.26120407412667,0.9981480836868286,0.05884101241827011,-0.015408038161695004,0.0009083067416213453
0.03750860289057123,23.944239865177735,-2.5011134513060918,4.807350248600138,0.0851055704412637,0.325055312182035,0.9100843369864665,6.822299003601074,-1.7866259813308716,-8.752096825048739e-09,5.032781832898374,19.576353090824828,20.264624683797955,0.9981069564819336,0.05949339643120766,-0.015562999062240124,0.0009276517084799707
0.03800871759577885,23.908300779289103,-2.4905621208044826,4.80503299332405,0.08492344476413154,0.3251464937043461,0.9100373934829556,6.896855354309082,-1.8043395280838013,-1.2450489250692698e-10,5.022136800580093,19.582687295781945,20.26791968519144,0.9980655908584595,0.0601426362991333,-0.0157166738063097,0.0009470742079429328
0.038508832300986465,23.872162722788964,-2.4796684596514207,4.802993410111139,0.08474187701506625,0.3252364800028238,0.909994309498285,6.971056938171387,-1.8219082355499268,-5.48554801582668e-09,5.011507218281915,19.58887757680289,20.271086166222755,0.9980241060256958,0.06078874692320824,-0.01586906984448433,0.000966570689342916
0.03900894700619408,23.835836624502832,-2.468430406770808,4.801232970911141,0.0845609583635589,0.32532522278764137,0.9099551494076153,7.044901371002197,-1.8393322229385376,-1.2770549950857912e-08,5.000898335604801,19.59491973722333,20.27412136284599,0.9979822635650635,0.061431724578142166,-0.016020189970731735,0.0009861375438049436
0.0395090617114017,23.799333506454552,-2.4568461554450445,4.799752656212992,0.08438077918676687,0.32541267530415224,0.9099199732354916,7.11838960647583,-1.856612205505371,2.3955184502710836e-09,4.99031537630603,19.600809755756583,20.27702266067835,0.997940182685852,0.062071580439805984,-0.016170041635632515,0.001005771802738309
0.04000917641660932,23.762664478917493,-2.444914156440832,4.7985529502907145,0.08420142898390508,0.3254987923532111,0.9098888366120877,7.191524505615234,-1.8737491369247437,5.3193258686690115e-09,4.979763533023852,19.606543788981714,20.279787596388612,0.9978979229927063,0.06270832568407059,-0.016318630427122116,0.0010254696244373918
0.040509291121816934,23.725840735330788,-2.432633120840342,4.797633837107979,0.08402299629041286,0.32558353030917614,0.9098617907356135,7.264308929443359,-1.8907439708709717,1.504251478934293e-08,4.969247961958585,19.612118173565204,20.28241385884812,0.997855544090271,0.06334197521209717,-0.016465963795781136,0.0010452282149344683
0.041009405827024545,23.688873547085958,-2.420002022576742,4.7969947968898525,0.08384556859201488,0.3256668471355951,0.9098388823408604,7.336737632751465,-1.9075968265533447,-4.379676621368844e-09,4.9587737775188,19.617529428215207,20.284899290044574,0.9978128671646118,0.06397251784801483,-0.01661204732954502,0.00106504384893924
0.04150952053223216,23.65177425818973,-2.4070201006733956,4.796634803369206,0.08366923223879771,0.3257487023985818,0.9098201536738895,7.408815860748291,-1.9243087768554688,-7.70434649410845e-09,4.9483460469413885,19.62277425536738,20.287241885758473,0.9977699518203735,0.06459997594356537,-0.01675688847899437,0.0010849139653146267
0.04200963523743978,23.614554279808637,-2.3936868611864464,4.796552321714435,0.08349407235942458,0.3258290572778949,0.9098056424728467,7.48054313659668,-1.940880298614502,1.1065685256994584e-08,4.937969784894338,19.62784954260173,20.289439796002803,0.9977268576622009,0.06522434949874878,-0.01690049283206463,0.0011048351880162954
0.0425097499426474,23.577225084702036,-2.38000207885084,4.796745307144121,0.08332017277561396,0.32590787457572645,0.909795381954861,7.551921844482422,-1.9573132991790771,-5.827599514063309e-10,4.927649948071464,19.632752363790743,20.291491325226968,0.9976837038993835,0.06584565341472626,-0.017042871564626694,0.0011248043738305569
0.043009864647855015,23.539798201549296,-2.3659657984302096,4.797211204233497,0.08314761591700641,0.325985118723221,0.9097894008090184,7.622950077056885,-1.9736069440841675,5.80832804075726e-09,4.9173914297879975,19.637479979978828,20.293394932285917,0.9976402521133423,0.0664638802409172,-0.017184026539325714,0.0011448186123743653
0.04350997935306263,23.50228520917791,-2.35157833577136,4.797946946916424,0.08297648273654785,0.3260607557847415,0.9097877231953385,7.693629741668701,-1.9897631406784058,4.225931604651123e-09,4.907199054586471,19.642029839994475,20.29514923017655,0.9975966215133667,0.06707904487848282,-0.017323967069387436,0.0011648748768493533
0.04401009405827025,23.464697730699317,-2.3368402785644364,4.798948959185759,0.0828068526265171,0.32613475345990534,0.9097903687497246,7.7639617919921875,-2.00578236579895,6.937807217610725e-09,4.897077572862104,19.64639958079613,20.29675298554304,0.9975528120994568,0.06769115477800369,-0.017462702468037605,0.001184970373287797
0.04451020876347786,23.42704742755884,-2.3217524868102055,4.800213156493967,0.08263880333532599,0.3262070810834155,0.9097973525948094,7.833946704864502,-2.0216658115386963,1.2881613997706154e-08,4.887031655517084,19.65058702755388,20.298205117953824,0.9975088238716125,0.06830021739006042,-0.01760024018585682,0.0012051024241372943
0.04501032346868548,23.389345993507213,-2.3063160929961635,4.801734947854897,0.08247241088522168,0.32627770962271363,0.9098086853566391,7.903588771820068,-2.037414789199829,-1.5534320496612963e-08,4.877065888653077,19.654590193468998,20.299504698952667,0.9974647760391235,0.0689062550663948,-0.017736589536070824,0.0012252681190147996
0.045510438173893095,23.35160514850036,-2.290532501983498,4.803509238646607,0.08230774949102009,0.32634661167348694,0.9098243731871127,7.9728827476501465,-2.0530288219451904,-1.908420621532514e-08,4.867184768311354,19.658407279334163,20.300650950887185,0.9974204301834106,0.06950925290584564,-0.017871754243969917,0.0012454648967832327
0.04601055287910071,23.313836632534912,-2.274403390607272,4.8055304341141225,0.08214489147999991,0.32641376145306034,0.9098444177920966,8.041834831237793,-2.068510055541992,-9.614272045155303e-09,4.857392695269887,19.662036672837306,20.301643245518036,0.9973760843276978,0.07010923326015472,-0.018005745485424995,0.0012656899634748697
0.04651066758430833,23.27605219942679,-2.2579307069924046,4.807792443570107,0.08198390721308613,0.32647913479171325,0.9098688164651166,8.110442161560059,-2.0838584899902344,9.329895078735717e-09,4.847693969906701,19.665476947612902,20.302481102412838,0.997331440448761,0.07070618867874146,-0.018138568848371506,0.0012859407579526305
0.04701078228951595,23.238263610540034,-2.2411166695883873,4.810288685290345,0.08182486500745084,0.3265427091219554,0.9098975621265345,8.178707122802734,-2.099076509475708,6.900454097014119e-10,4.838092787138701,19.668726862044267,20.30316418712871,0.9972867965698242,0.07130013406276703,-0.018270239233970642,0.0013062144862487912
0.047510896994723564,23.2004826284737,-2.2239637659258817,4.813012092099914,0.0816678310606602,0.3266044634658036,0.9099306433681005,8.246627807617188,-2.114163875579834,-4.706761647099711e-09,4.828593231445189,19.67178535782131,20.30369230918787,0.9972419142723083,0.07189106941223145,-0.018400760367512703,0.0013265089364722371
0.048011011699931175,23.162721010714122,-2.2064747510986362,4.81595511764505,0.08151286937649176,0.3266643784201046,0.9099680445027648,8.314207077026367,-2.1291215419769287,1.1837600899511358e-09,4.819199271985005,19.674651558258585,20.30406541985127,0.9971968531608582,0.0724790021777153,-0.018530141562223434,0.001346821547485888
0.04851112640513879,23.12499050326039,-2.188652645974406,4.819109743344598,0.08136004169254972,0.326722436139945,0.9100097456196374,8.381447792053223,-2.143951416015625,5.6140336823773396e-09,4.809914757816318,19.677324766378266,20.304283609694927,0.997151792049408,0.07306394726037979,-0.018658393993973732,0.0013671498745679855
0.04901124111034641,23.087302834230403,-2.1705007351387806,4.822467486013954,0.08120940740979922,0.3267786203201999,0.9100557226439637,8.448348045349121,-2.158653974533081,3.4568143902902193e-09,4.800743413227703,19.67980446276387,20.304347105994673,0.9971066117286682,0.07364590466022491,-0.018785526975989342,0.001387491705827415
0.04951135581555403,23.049669707455518,-2.15202256457608,4.826019406153518,0.08106102352414343,0.3268329161752662,0.910105947401983,8.514907836914062,-2.1732306480407715,-1.1443315628412165e-08,4.791688833189255,19.682090303190215,20.304256269924718,0.9970611929893494,0.07422488182783127,-0.01891154795885086,0.0014078447129577398
0.050011470520761644,23.0121027960713,-2.1332219390916696,4.8297561168925975,0.08091494456016067,0.3268853104170317,0.9101603876905389,8.581130981445312,-2.1876819133758545,-1.2052685516295014e-09,4.782754478931959,19.684182116035576,20.30401159357586,0.9970157742500305,0.07480089366436005,-0.019036468118429184,0.001428206916898489
0.05051158522596926,22.97461373611187,-2.1141029194802625,4.833667793578746,0.08077122250712118,0.3269357912311342,0.9102190073512907,8.647014617919922,-2.202009439468384,5.2137125727824696e-09,4.773943673663697,19.686079899482575,20.303613696799655,0.9969701766967773,0.07537393271923065,-0.01916029490530491,0.0014485757565125823
0.05101169993117688,22.93721412011612,-2.0946698194449627,4.837744184001642,0.08062990675739606,0.3269843482515639,0.9102817663493912,8.712562561035156,-2.216214179992676,-2.733006043698083e-09,4.765259598429702,19.68778381851413,20.303063323884636,0.9969245791435242,0.07594401389360428,-0.01928304135799408,0.0014689491363242269
0.0515118146363845,22.899915490752555,-2.0749272022720198,4.841974619239515,0.08049104404737194,0.3270309725336644,0.9103486208564602,8.777771949768066,-2.230297088623047,-2.5119751612123764e-08,4.756705288125337,19.68929420171162,20.30236134007146,0.9968787431716919,0.07651113718748093,-0.019404714927077293,0.0014893251936882734
0.05201192934159211,22.862729334471112,-2.054879877266364,4.846348025115388,0.08035467840097875,0.32707565652558895,0.9104195233377101,8.842649459838867,-2.2442591190338135,-1.1386616982633768e-08,4.748283627668578,19.690611537862104,20.30150872791356,0.9968329668045044,0.07707532495260239,-0.019525326788425446,0.0015097020659595728
0.052512044046799725,22.825667075189024,-2.034532895953268,4.850852934249239,0.08022085107593693,0.3271183940382714,0.9104944226430683,8.907188415527344,-2.25810170173645,-2.5871585762615723e-08,4.739997348339373,19.691736472381905,20.300506583490176,0.9967869520187378,0.07763656973838806,-0.019644882529973984,0.0015300773084163666
0.05301215875200734,22.788740068018384,-2.0138915480515336,4.855477498691566,0.08008960051282628,0.3271591802139719,0.9105732641021063,8.971396446228027,-2.2718257904052734,9.95006210757765e-09,4.731849024292948,19.69266980356455,20.299356112479476,0.996740996837616,0.07819487899541855,-0.01976339891552925,0.0015504496404901147
0.05351227345721496,22.751959593042546,-1.992961357223813,4.8602095031226344,0.07996096228707399,0.32719801149345284,0.9106559896226398,9.035269737243652,-2.285432815551758,1.185425357874692e-08,4.723841069253449,19.693412478659916,20.29805862609827,0.9966949224472046,0.07875026762485504,-0.019880883395671844,0.0015708166174590588
0.05401238816242258,22.715336849148883,-1.971748076609772,4.8650363786011095,0.07983496906395697,0.3272348855818548,0.9107425377928053,9.098812103271484,-2.298923969268799,1.7205202595960145e-08,4.71597573339437,19.693965589793418,20.29661553691665,0.9966487884521484,0.07930274307727814,-0.01999734528362751,0.0015911768423393369
0.054512502867630194,22.6788829479248,-1.9502576841479724,4.869945216844721,0.07971165055670867,0.3272698014133259,0.9108328439864498,9.162019729614258,-2.3122992515563965,4.658530006196315e-09,4.708255100411646,19.69433036973245,20.295028354554518,0.996602475643158,0.07985229045152664,-0.020112792029976845,0.0016115277539938688
0.05501261757283781,22.642608907624226,-1.9284963776924353,4.874922785024838,0.07959103348781546,0.32730275911447415,0.9109268404716542,9.224900245666504,-2.3255615234375,4.609431947244502e-09,4.700681084795006,19.694508187508855,20.293298681268187,0.9965562224388123,0.08039895445108414,-0.02022724039852619,0.0016318687703460455
0.05551273227804542,22.606525647211257,-1.9064705699299827,4.879955541056061,0.07947314155358495,0.32733375996670294,0.9110244565222111,9.28744888305664,-2.3387110233306885,-4.023663180419135e-09,4.693255429302893,19.69450054390528,20.291428207434777,0.9965099096298218,0.08094272017478943,-0.020340695977211,0.0016521975630894303
0.05601284698325304,22.57064398048782,-1.8841868831045607,4.885029649361088,0.07935799539206123,0.32736280636749526,0.9111256185318818,9.349668502807617,-2.3517487049102783,-3.6141170056680494e-09,4.68597970264572,19.69430906681404,20.28941870694228,0.996463418006897,0.08148358762264252,-0.02045316807925701,0.0016725125024095178
0.05651296168846066,22.534974610311934,-1.861652143554844,4.890130997090377,0.07924561255435998,0.32738990179070926,0.9112302501312398,9.41156005859375,-2.3646762371063232,-1.877347388656858e-09,4.678855297382088,19.693935506476762,20.28727203249352,0.9964169859886169,0.08202158659696579,-0.020564673468470573,0.0016928125405684114
0.057013076393668274,22.499528122912842,-1.8388733760714582,4.895245210775461,0.0791360074794889,0.32741505074595373,0.9113382723069353,9.473123550415039,-2.3774943351745605,-4.026496469577978e-09,4.671883428031963,19.69338173061336,20.28499011083191,0.9963703751564026,0.08255670219659805,-0.020675215870141983,0.0017130954656749964
0.05751319109887589,22.46431498230957,-1.815857798080316,4.900357673393975,0.07902919147271589,0.3274382587371042,0.9114496035231732,9.53436279296875,-2.3902053833007812,-3.545392424086913e-09,4.66506512941069,19.692649719448987,20.28257493789747,0.996323823928833,0.08308897167444229,-0.020784813910722733,0.0017333609284833074
0.05801330580408351,22.429345524838514,-1.7926128136585653,4.9054535418238725,0.07892517268754037,0.32745953222002855,0.9115641598452393,9.59527587890625,-2.4028093814849854,2.669104048891313e-09,4.658401255187088,19.691741560647372,20.28002857392103,0.9962772727012634,0.08361838012933731,-0.02089347131550312,0.001753606484271586
0.05851342050929113,22.394629953796468,-1.769146007389726,4.910517764663673,0.07882395611131919,0.3274788785595834,0.9116818550648871,9.655864715576172,-2.4153082370758057,-9.938506018158932e-09,4.6518924766686105,19.690659444158936,20.277353138464832,0.9962306618690491,0.08414493501186371,-0.02100120112299919,0.0017738307360559702
0.05901353521449874,22.360178334204292,-1.7454651380646753,4.915535100394869,0.07872554355459241,0.32749630598595,0.9118026008273904,9.7161283493042,-2.4277024269104004,1.222170098458264e-08,4.64553928181619,19.689405656992594,20.274550805417988,0.9961839914321899,0.08466865122318268,-0.02110801264643669,0.001794033101759851
0.059513649919706355,22.326000587697134,-1.7215781322351595,4.920490135862258,0.07862993364414805,0.3275118235503738,0.911926306760086,9.776070594787598,-2.4399936199188232,-1.0995815813430454e-08,4.639341974490836,19.687982577919545,20.27162379795492,0.9961373209953308,0.08518953621387482,-0.021213917061686516,0.0018142113694921136
0.06001376462491397,22.292106487546032,-1.6974930776265706,4.925367305047231,0.07853712181986114,0.327525441080368,0.9120528806022181,9.835689544677734,-2.4521825313568115,-1.142241945473188e-08,4.633300673933844,19.686392672117325,20.268574383464827,0.9960905909538269,0.08570760488510132,-0.02131892368197441,0.0018343650735914707
0.06051387933012159,22.258505653816467,-1.6732182164167688,4.930150908108639,0.07844710033533389,0.3275371691344536,0.9121822283359127,9.894989013671875,-2.46427059173584,-2.90154638094009e-08,4.627415314481832,19.684638485762733,20.265404868460504,0.996043860912323,0.08622285723686218,-0.021423043683171272,0.001854492467828095
0.06101399403532921,22.225207548668166,-1.6487619383877412,4.934825130665438,0.07835985826236046,0.3275470189564923,0.9123142543180761,9.953963279724121,-2.4762587547302246,-8.226463954486007e-09,4.6216856455177275,19.682722640582046,20.26211759347478,0.9959970116615295,0.08673527836799622,-0.021526284515857697,0.0018745921552181244
0.061514108740536824,22.19222147180117,-1.624132773956937,4.939374063294808,0.07827538149923222,0.3275550024296793,0.9124488614130664,10.01262378692627,-2.4881489276885986,-4.279884890934227e-09,4.616111231658089,19.680647828366293,20.25871492795219,0.9959502816200256,0.0872449204325676,-0.021628662943840027,0.0018946637865155935
0.06201422344574444,22.159556556052408,-1.5993393870951094,4.943781721219092,0.07819365278289421,0.32756113203025927,0.9125859511259431,10.070965766906738,-2.49994158744812,-1.0497296365485909e-09,4.610691453176965,19.67841680546003,20.255199265144224,0.995903491973877,0.08775177597999573,-0.02173018455505371,0.0019147058483213186
0.06251433815095206,22.127221763146775,-1.5743905681375394,4.948032064154528,0.07811465170495716,0.327565420781025,0.9127254237361094,10.12899112701416,-2.5116379261016846,1.9010890639492573e-09,4.605425506666114,19.676032387231704,20.2515730170161,0.9958567023277283,0.0882558524608612,-0.021830860525369644,0.0019347172928974032
0.06301445285615967,22.095225879606886,-1.5492952264954931,4.952109016294498,0.07803835473156369,0.3275678822046637,0.9128671784312032,10.186697959899902,-2.5232396125793457,1.8922237998708624e-08,4.600312405930758,19.67349744253293,20.247838609172337,0.9958099126815796,0.08875715732574463,-0.021930700168013573,0.001954697072505951
0.0635145675613673,22.06357751282486,-1.5240623832748084,4.955996486399659,0.0779647352271004,0.3275685302770074,0.9130111134410329,10.244091033935547,-2.5347471237182617,-2.379996644208404e-09,4.595350983119971,19.670814888154897,20.243998475809338,0.9957631230354309,0.08925569802522659,-0.02202971652150154,0.0019746441394090652
0.0640146822665749,22.032285087299947,-1.4987011638084944,4.959678387967211,0.07789376348174386,0.3275673793802516,0.913157126171403,10.301170349121094,-2.5461618900299072,1.9040854226659576e-08,4.590539890090279,19.667987683289283,20.240055054702342,0.9957163333892822,0.08975148946046829,-0.022127917036414146,0.0019945576786994934
0.06451479697178251,22.001356841044622,-1.4732207901102474,4.96313865945128,0.07782540674281896,0.3275644442561994,0.9133051133376721,10.35793685913086,-2.5574851036071777,4.182945989583686e-09,4.585877600000537,19.665018824000917,20.236010782233965,0.9956695437431335,0.09024453908205032,-0.022225312888622284,0.002014436526224017
0.06501491167699014,21.97080082216263,-1.4476305732557668,4.966361284506352,0.07775962924994557,0.32755973995958704,0.9134549710978589,10.414392471313477,-2.568718194961548,8.361956460589681e-09,4.581362409136069,19.661911337719584,20.23186808847179,0.9956228733062744,0.09073486179113388,-0.0223219133913517,0.002034280216321349
0.06551502638219775,21.940624885601274,-1.4219399056987911,4.969330312225554,0.07769639227394115,0.32755328181155297,0.913606595185157,10.470537185668945,-2.579861640930176,-8.348020941184586e-09,4.576992438959423,19.658668277757936,20.227629392302102,0.9955761432647705,0.09122245758771896,-0.02241772785782814,0.002054087119176984
0.06601514108740537,21.910836690080526,-1.396158253528711,4.972029877345516,0.07763565415944153,0.3275450853533014,0.9137598810396853,10.526368141174316,-2.5909156799316406,-6.167897748099449e-09,4.572765638384865,19.65529271786242,20.223297096626574,0.995529294013977,0.09170731902122498,-0.022512761875987053,0.0020738565362989902
0.06651525579261298,21.881443695201156,-1.3702951486766732,4.974444220389623,0.07757737037119712,0.3275351663000201,0.9139147239393407,10.58189582824707,-2.601883888244629,-6.249502249033867e-09,4.568679786273348,19.65178774680363,20.218873583628575,0.9954826831817627,0.0921894982457161,-0.02260703407227993,0.0020935884676873684
0.06701537049782061,21.85245315873384,-1.3443601810770358,4.976557707721435,0.07752149354399447,0.3275235404951008,0.9140710191295797,10.63711166381836,-2.612764358520508,2.9130289846968083e-10,4.564732494144398,19.64815646301288,20.214361210115925,0.995435893535614,0.09266896545886993,-0.022700542584061623,0.002113281050696969
0.06751548520302822,21.823872134090628,-1.3183629907910401,4.978354851480166,0.07746797353614901,0.32751022386472217,0.9142286619520044,10.692025184631348,-2.623561143875122,7.881912011953318e-09,4.560921209100952,19.644401969271055,20.20976230294621,0.9953893423080444,0.09314577281475067,-0.02279330976307392,0.0021329347509890795
0.06801559990823583,21.795707467980872,-1.2923132600995424,4.9798203293703,0.0774167574865066,0.32749523237283873,0.9143875479716072,10.746631622314453,-2.6342732906341553,1.1447266246022991e-08,4.557243216962863,19.64052736745556,20.20507915454063,0.9953426718711853,0.09361989796161652,-0.022885335609316826,0.002152547938749194
0.06851571461344345,21.767965798252092,-1.2662207055716606,4.980939004277478,0.0773677898748897,0.32747858197663404,0.9145475731025313,10.800932884216309,-2.644901990890503,2.473555138493566e-09,4.553695645604595,19.63653575335162,20.200314018492733,0.995296061038971,0.09409134835004807,-0.022976631298661232,0.0021721196826547384
0.06901582931865106,21.740653551917198,-1.240095070116135,4.9816959436831585,0.07732101258591442,0.3274602885824799,0.9147086337322224,10.854931831359863,-2.6554484367370605,8.735822731864573e-09,4.550275468492148,19.632430211533077,20.195469105277184,0.9952495098114014,0.0945601537823677,-0.023067204281687737,0.0021916499827057123
0.06951594402385869,21.713776943368686,-1.2139461150222324,4.982076438850693,0.0772763649761023,0.3274403680024562,0.9148706268438391,10.90863037109375,-2.6659138202667236,1.694892759473987e-08,4.54697950841412,19.628213810318424,20.190546578064502,0.9952029585838318,0.09502631425857544,-0.023157063871622086,0.002211137441918254
0.0700160587290663,21.687341972780345,-1.1877836119969463,4.982066023755824,0.07723378394420423,0.3274188359114728,0.9150334501368053,10.962027549743652,-2.6762988567352295,-1.0238564662756744e-08,4.543804441401424,19.623889596806954,20.18554854864655,0.995156466960907,0.09548985213041306,-0.023246219381690025,0.0022305818274617195
0.07051617343427392,21.661354424696466,-1.1616173352052908,4.981650493734971,0.07719320400464834,0.3273957078050419,0.9151970021453832,11.015125274658203,-2.6866047382354736,1.9845531440410014e-08,4.540746800829942,19.61946059199997,20.18047707347787,0.9951099753379822,0.09595075994729996,-0.023334680125117302,0.0022499829065054655
0.07101628813948153,21.63581986680919,-1.1354570533204098,4.9808159238250616,0.0771545573640199,0.32737099895774197,0.9153611823551508,11.067927360534668,-2.6968328952789307,-5.021735027810337e-09,4.537802981700204,19.614929786011945,20.175334149837646,0.9950636625289917,0.09640907496213913,-0.023422453552484512,0.00226933928206563
0.07151640284468914,21.610743648923027,-1.1093125215902062,4.979548686769094,0.0771177740004754,0.3273447243824183,0.915525891317284,11.120428085327148,-2.706981897354126,-1.617364198125415e-08,4.534969245087781,19.610300133375794,20.170121712116455,0.9950171709060669,0.09686477482318878,-0.023509541526436806,0.002288650255650282
0.07201651754989677,21.5861309021069,-1.0831934739271973,4.977835470662091,0.0770827817459892,0.3273168987901597,0.9156910307605308,11.172639846801758,-2.7170560359954834,4.933341291035731e-09,4.53224172275807,19.605574548446803,20.164841628232242,0.994970977306366,0.09731791168451309,-0.023595964536070824,0.0023079165257513523
0.07251663225510438,21.561986538032617,-1.0571096150282424,4.9756632962126925,0.07704950637132528,0.32728753655109094,0.9158565037007873,11.224554061889648,-2.72705340385437,-6.559282894613716e-09,4.529616421938679,19.600755900908922,20.159495696179132,0.9949247241020203,0.09776845574378967,-0.023681718856096268,0.0023271359968930483
0.073016746960312,21.53831524849903,-1.0310706125307663,4.973019533596148,0.07701787167362437,0.32725665165601786,0.9160222145481742,11.276175498962402,-2.73697566986084,8.63415205998308e-09,4.527089230242658,19.59584701138742,20.15408564071278,0.9948785305023193,0.09821643680334091,-0.023766813799738884,0.002346308436244726
0.07351686166551961,21.515121505141124,-1.0050860892120745,4.969891918875026,0.07698779956649081,0.32722425767896446,0.9161880692115357,11.327505111694336,-2.746824264526367,8.769286630183615e-09,4.524655920735434,19.590850647171266,20.148613110175567,0.9948323369026184,0.098661869764328,-0.023851260542869568,0.002365433843806386
0.07401697637072724,21.492409559322425,-0.9791656152383227,4.9662685699647495,0.07695921017246017,0.32719036774063326,0.9163539752002654,11.378546714782715,-2.7565999031066895,-9.494779185104107e-09,4.522312157138257,19.585769518048817,20.143079673464605,0.9947863221168518,0.09910477697849274,-0.023935068398714066,0.0023845115210860968
0.07451709107593485,21.470183442209596,-0.9533187004696503,4.96213800212161,0.076932021917725,0.3271549944728263,0.9165198417233928,11.429298400878906,-2.7663025856018066,-2.941551180413171e-08,4.520053499160702,19.580606272259633,20.137486817145373,0.9947402477264404,0.09954514354467392,-0.024018237367272377,0.0024035407695919275
0.07501720578114246,21.448446965027458,-0.9275547868279792,4.957489142931653,0.07690615162899339,0.3271181499838535,0.9166855797858486,11.47976016998291,-2.775933265686035,2.621875161423759e-08,4.5178754079547545,19.575363492565454,20.131835942713245,0.9946942925453186,0.09998298436403275,-0.0241007748991251,0.0024225208908319473
0.07551732048635008,21.427203719492756,-0.9018832407338925,4.952311346779751,0.07688151463234949,0.32707984582496424,0.9168511022818461,11.529937744140625,-2.7854931354522705,9.282207003025178e-09,4.515773251682669,19.570043692443047,20.126128364005258,0.9946483969688416,0.100418321788311,-0.024182690307497978,0.0024414509534835815
0.0760174351915577,21.406457078424676,-0.8763133456190091,4.946594408778733,0.07685802485398475,0.3270400929578272,0.9170163240853119,11.579828262329102,-2.794982671737671,-2.5479224063928996e-08,4.513742311190887,19.564649312401343,20.120365304763908,0.9946025609970093,0.1008511632680893,-0.024263989180326462,0.0024603307247161865
0.07651754989676532,21.386210196529806,-0.8508542945201801,4.94032857813948,0.07683559492266381,0.3269989017230869,0.9171811621373148,11.629437446594238,-2.8044023513793945,2.8157998155364794e-09,4.511777785782,19.559182716425,20.114547896354374,0.9945567846298218,0.1012815311551094,-0.024344677105545998,0.0024791609030216932
0.07701766460197293,21.366466011359588,-0.8255151827618248,4.9335045709636285,0.07681413627378728,0.326956281810022,0.9173455355304317,11.678764343261719,-2.813753366470337,-2.889695593921715e-09,4.509874799076767,19.55364618854665,20.10867717563671,0.9945111870765686,0.10170944035053253,-0.024424763396382332,0.0024979396257549524
0.07751777930718055,21.34722724443737,-0.8003050007326432,4.926113582441485,0.07679355925491071,0.3269122422273301,0.9175093655900022,11.72780990600586,-2.823035955429077,-2.47477305315158e-09,4.508028404958073,19.54804192954962,20.102754082993894,0.9944655299186707,0.10213487595319748,-0.024504248052835464,0.0025166666600853205
0.07801789401238816,21.32849640255281,-0.7752326267629105,4.91814729843855,0.07677377323257718,0.3268667912750623,0.9176725759522475,11.77657413482666,-2.8322501182556152,3.6730545271979054e-09,4.506233593588526,19.542372053802563,20.096779460516206,0.9944199919700623,0.10255786031484604,-0.024583136662840843,0.0025353410746902227
0.07851800871759577,21.31027577922064,-0.7503068201084858,4.90959790645519,0.0767546867003181,0.32681993651772595,0.9178350926391811,11.825063705444336,-2.841398000717163,-1.9116628280357872e-08,4.504485297493574,19.536638586228005,20.090754050342888,0.9943746328353882,0.1029784306883812,-0.024661440402269363,0.0025539633352309465
0.0790181234228034,21.292567456301093,-0.7255362140476193,4.900458105944715,0.07673620738767689,0.326771684758577,0.9179968441303133,11.873272895812988,-2.850478172302246,-4.778404338878772e-09,4.502778397701714,19.530843459405375,20.084678493160503,0.9943292140960693,0.10339656472206116,-0.024739155545830727,0.00257253204472363
0.07951823812801101,21.2753733057787,-0.7009293090965686,4.890721117976354,0.07671824237010642,0.32672204201512095,0.9181577614310948,11.921208381652832,-2.859492778778076,-3.295999917440895e-08,4.5011077299334845,19.5249885108104,20.078553326858657,0.99428391456604,0.10381229221820831,-0.024816293269395828,0.0025910467375069857
0.08001835283321863,21.25869499169669,-0.6764944663499749,4.880380694230429,0.07670069817959195,0.3266710134958362,0.91831777813809,11.968867301940918,-2.868441104888916,1.366322521789698e-08,4.499468090830877,19.51907548019121,20.07237898534199,0.9942386746406555,0.10422561317682266,-0.024892855435609818,0.0026095074135810137
0.08051846753842624,21.24253397224322,-0.652239900951874,4.869431125314219,0.07668348091584822,0.32661860357813527,0.9184768305008495,12.016257286071777,-2.8773252964019775,1.2282136196972715e-08,4.497854244218749,19.51310600708223,20.066155797498205,0.9941936135292053,0.10463656485080719,-0.02496885135769844,0.0026279136072844267
0.08101858224363387,21.226891501986714,-0.6281736757031345,4.857867248387958,0.07666649635794093,0.326564815787577,0.9186348574804757,12.063373565673828,-2.8861441612243652,-8.337947221548347e-09,4.496260927389878,19.507081628456348,20.059883986320937,0.9941485524177551,0.1050451323390007,-0.0250442773103714,0.0026462639216333628
0.08151869694884148,21.211768634256075,-0.6043036948110528,4.8456844540915265,0.0766496500761798,0.32650965277834476,0.918791800804858,12.11021900177002,-2.8948984146118164,-2.3935369242167326e-09,4.4946828574052775,19.50100377651607,20.053563668186655,0.9941035509109497,0.10545133799314499,-0.02511914074420929,0.002664558356627822
0.08201881165404909,21.19716622366293,-0.5806376977867238,4.83287869276347,0.0766328475441326,0.3264531163149942,0.9189476050205895,12.15679931640625,-2.9035897254943848,6.255439721769562e-09,4.493114737401379,19.49487377662343,20.047194852283525,0.9940587878227234,0.10585521161556244,-0.02519344910979271,0.002682796912267804
0.08251892635925671,21.183084928761584,-0.5571832534957424,4.819446479945148,0.07661599425060746,0.3263952072554861,0.919102217541539,12.203108787536621,-2.912216901779175,-1.8004072899202583e-08,4.491551262895851,19.48869284536942,20.040777440191313,0.9940139651298523,0.10625673830509186,-0.02526719868183136,0.0027009781915694475
0.08301904106446432,21.169525214843507,-0.5339477543676826,4.805384901163833,0.07659899581145206,0.32633592553550567,0.9192555886940913,12.249154090881348,-2.920780658721924,-1.8551501668184756e-08,4.489987128083719,19.482462088782622,20.034311225609912,0.9939692616462708,0.10665594041347504,-0.02534039504826069,0.0027191017288714647
0.08351915576967195,21.15648735686197,-0.5109384107697076,4.790691615989832,0.0765817580810189,0.3262752701540803,0.9194076717590688,12.294936180114746,-2.9292821884155273,-2.8627210824083704e-08,4.488417032115569,19.476182500676938,20.027795894234547,0.9939247369766235,0.10705284774303436,-0.025413045659661293,0.0027371677570044994
0.08401927047487956,21.143971442483494,-0.4881622455495609,4.7753648613637,0.07656418726314596,0.32621323916049205,0.9195584230103191,12.340456008911133,-2.9377217292785645,1.5882925197274744e-08,4.486835685349781,19.469854961138243,20.021231023775353,0.9938803315162659,0.10744744539260864,-0.025485150516033173,0.0027551751118153334
0.08451938518008718,21.131977375261663,-0.4656260887530703,4.759403454190822,0.07654619002150274,0.32614982964249417,0.9197078017500013,12.385710716247559,-2.9460978507995605,2.607581350844157e-08,4.485237815570606,19.46348023514959,20.0146160841187,0.9938359260559082,0.10783974081277847,-0.02555670775473118,0.0027731226291507483
0.0850194998852948,21.120504877929598,-0.4433365725211859,4.742806793201796,0.07652767358915434,0.32608503771583,0.9198557703405784,12.430705070495605,-2.9544119834899902,-4.596234504106178e-09,4.48361817416422,19.4570589713544,20.007950437627603,0.9937915802001953,0.10822976380586624,-0.025627722963690758,0.0027910100761801004
0.0855196145905024,21.109553495806903,-0.4213001261714414,4.725574860078058,0.07650854587719516,0.32601885851505397,0.9200022942335278,12.475441932678223,-2.962665319442749,3.5879757831480674e-08,4.48197154224479,19.450591700957133,20.001233339578327,0.9937474727630615,0.10861753672361374,-0.02569820173084736,0.0028088379185646772
0.08601972929571003,21.09912260031692,-0.3995229714686077,4.707708219843475,0.07648871558230853,0.3259512861856533,0.9201473419948014,12.519920349121094,-2.970855951309204,-5.753926668461418e-09,4.480292736722885,19.444078836760628,19.99446393872998,0.9937033653259277,0.10900304466485977,-0.025768138468265533,0.0028266035951673985
0.08651984400091764,21.089211392610206,-0.37801111808915555,4.689208020523638,0.07646809229310714,0.32588231387746686,0.9202908853270565,12.5641450881958,-2.9789857864379883,3.548543858755693e-08,4.478576616308468,19.437520672339243,19.98764127802383,0.9936594367027283,0.10938633233308792,-0.025837542489171028,0.0028443087358027697
0.08701995870612526,21.07981890728999,-0.35677035928401574,4.670075992075808,0.07644658659511398,0.3258119337393991,0.9204328990886748,12.608112335205078,-2.9870541095733643,-2.1084585188901883e-09,4.4768180874410595,19.430917381347168,19.98076429540929,0.9936155080795288,0.1097673773765564,-0.025906410068273544,0.0028619507793337107
0.08752007341133287,21.070944016235348,-0.33580626774396344,4.650314444593501,0.07642411017424405,0.3257401369154188,0.920573361309615,12.65182876586914,-2.9950618743896484,-1.243121872107622e-08,4.475012110139616,19.424269016960444,19.97383182479247,0.9935718178749084,0.11014621704816818,-0.02597474679350853,0.002879530191421509
0.0880201881165405,21.062585432517828,-0.3151241916718024,4.629926265790862,0.07640057591865049,0.32566691354183874,0.9207122532041239,12.695287704467773,-3.0030081272125244,-1.7884085323771615e-08,4.473153703764909,19.41757551145182,19.966842597103913,0.9935281276702881,0.11052283644676208,-0.026042548939585686,0.002897045575082302
0.08852030282174811,21.05474171440736,-0.2947292510653576,4.6089149177730295,0.0763758980188008,0.3255922527458691,0.9208495591803368,12.738497734069824,-3.0108935832977295,-3.089631306352203e-08,4.471237952687318,19.410836675897386,19.959795241481917,0.9934845566749573,0.11089726537466049,-0.02610982023179531,0.002914496697485447
0.08902041752695572,21.047411269462884,-0.27462633421512167,4.587284433099848,0.07634999206565277,0.3255161426454282,0.9209852668468047,12.78145980834961,-3.0187184810638428,-2.8421449638216245e-09,4.469260011853162,19.404052200013403,19.952688286567174,0.9934411644935608,0.1112695261836052,-0.026176562532782555,0.0029318833258002996
0.08952053223216334,21.040592358703755,-0.25482009442021947,4.565039410151288,0.07632277514680197,0.3254385703502092,0.921119367016005,12.824169158935547,-3.026482105255127,-1.7685220399243917e-08,4.467215112242726,19.39722165212208,19.945520161904806,0.9933977723121643,0.111639603972435,-0.026242772117257118,0.0029492038302123547
0.09002064693737095,21.03428310085718,-0.23531494692618027,4.542185007804072,0.07629416594047557,0.3253595219639811,0.9212518537048463,12.86663818359375,-3.0341854095458984,6.365858506995892e-09,4.465098566213498,19.390344479245,19.938289199450043,0.9933546185493469,0.11200754344463348,-0.02630845457315445,0.0029664586763828993
0.09052076164257858,21.028481476677783,-0.2161150660878125,4.518726939429942,0.07626408480725234,0.3252789825881175,0.9213827241322434,12.908859252929688,-3.0418283939361572,5.421166182628667e-09,4.462905772722148,19.38342000732235,19.93099363517285,0.9933115839958191,0.11237333714962006,-0.0263736080378294,0.002983646234497428
0.09102087634778619,21.02318533333462,-0.197224382760286,4.494671466227058,0.07623245387939101,0.3251969363263342,0.9215119787137801,12.95083236694336,-3.0494093894958496,-5.531531677149815e-09,4.4606322224191555,19.376447441556795,19.923631610757845,0.9932685494422913,0.11273697763681412,-0.02643822692334652,0.0030007653404027224
0.09152099105299381,21.018392388861542,-0.17864658192131702,4.470025389897057,0.07619919714765275,0.3251133662906218,0.921639621053524,12.992568016052246,-3.0569305419921875,-2.3248137637210675e-08,4.4582735026099645,19.36942586687999,19.916201175394868,0.9932257533073425,0.11309850960969925,-0.026502320542931557,0.003017816226929426
0.09202110575820142,21.014100236666504,-0.1603851005271421,4.444796044681101,0.07616424054550905,0.32502825460835766,0.9217656579330362,13.034055709838867,-3.064389944076538,6.330117319208739e-09,4.455825302076955,19.362354248540274,19.908700287656135,0.9931829571723938,0.11345791071653366,-0.026565879583358765,0.0030347974970936775
0.09252122046340903,21.010306350095423,-0.14244312560474803,4.418991288769348,0.07612751203062858,0.3249415824305743,0.9218900992976246,13.075305938720703,-3.071789264678955,-1.930684057072085e-08,4.453283415756603,19.355231432809525,19.901126817455467,0.9931403994560242,0.11381522566080093,-0.02662891335785389,0.0030517091508954763
0.09302133516861666,21.007008087046525,-0.12482359258260131,4.392619495099091,0.07608894166354248,0.3248533299413711,0.9220129582398922,13.116312980651855,-3.0791268348693848,6.615524572595177e-09,4.450643749266486,19.348056147807615,19.893478548085476,0.9930978417396545,0.11417043209075928,-0.026691410690546036,0.003068549558520317
0.09352144987382427,21.00420269463059,-0.10752918386188762,4.365689541557687,0.07604846168339081,0.3247634763684463,0.9221342509806313,13.157082557678223,-3.0864033699035645,-3.240844392848885e-08,4.447902323276981,19.340827004442524,19.885753178328365,0.9930554032325745,0.11452355980873108,-0.02675337716937065,0.0030853180214762688
0.0940215645790319,21.00188731387316,-0.09056232763003688,4.338210800607248,0.0760060065806582,0.32467199999472657,0.9222539968471214,13.197617530822754,-3.0936193466186523,-1.2419473449654106e-08,4.445055277722731,19.33354249746394,19.877948324635774,0.9930132031440735,0.11487463116645813,-0.026814814656972885,0.0031020150054246187
0.0945216792842395,21.000058984454103,-0.0739251969180663,4.310193128348903,0.07596151316681066,0.3245788781710745,0.9223722182488807,13.237914085388184,-3.1007730960845947,-1.426995410724885e-08,4.442098875849169,19.32620100662865,19.870061523373604,0.9929710030555725,0.11522362381219864,-0.02687571384012699,0.0031186379492282867
0.09502179398944713,20.99871464948082,-0.05761970890302029,4.281646853045175,0.07591492064075163,0.3244840873300526,0.9224889406509226,13.27797794342041,-3.1078662872314453,-5.109034972861082e-09,4.439029508089732,19.318800797975747,19.862090233127727,0.9929290413856506,0.11557058244943619,-0.026936082169413567,0.003135187551379204
0.09552190869465474,20.99785116029028,-0.04164752445653398,4.252582763119774,0.07586617065201845,0.32438760300071257,0.9226041925445813,13.3178071975708,-3.1148977279663086,2.6052102697349255e-09,4.435843695769452,19.311340025209137,19.854031837065815,0.9928871989250183,0.11591549962759018,-0.026995914056897163,0.0031516619492322206
0.09602202339986235,20.997465281276327,-0.02601004794027193,4.2230120946548455,0.07581520736064666,0.32428939982439453,0.9227180054159588,13.357403755187988,-3.1218671798706055,1.0823437257556634e-08,4.432538094631011,19.30381673118572,19.845883645351595,0.9928454756736755,0.11625839024782181,-0.027055207639932632,0.0031680609099566936
0.09652213810506997,20.99755369473769,-0.010708427248734694,4.192946518406405,0.07576197749363495,0.32418945157150253,0.922830413712045,13.396764755249023,-3.1287739276885986,5.996053431545079e-09,4.429109498179569,19.296228849506832,19.837642897607275,0.9928037524223328,0.11659923940896988,-0.027113959193229675,0.0031843825709074736
0.09702225281027758,20.998113005742848,0.004256445900346639,4.162398126359218,0.075706430397947,0.32408773115923273,0.922941454804575,13.435897827148438,-3.1356184482574463,1.666736415550929e-09,4.425554840842846,19.288574206210694,19.829306765419876,0.9927622079849243,0.11693807691335678,-0.027172168716788292,0.0032006266992539167
0.09752236751548521,20.999139747007487,0.018883935428084215,4.131379417843098,0.07564851808999379,0.32398421067022853,0.9230511689516733,13.474803924560547,-3.1424014568328857,-4.577171974773364e-09,4.4218712009433006,19.28085052156392,19.82087235488793,0.992720901966095,0.1172749400138855,-0.02722983993589878,0.0032167930621653795
0.09802248222069282,21.000630383780653,0.033173660109303366,4.099903285233074,0.07558819530154405,0.3238788613721292,0.9231595992573571,13.513481140136719,-3.1491215229034424,-2.6637513528271484e-08,4.418055803479415,19.273055411949162,19.81233670920392,0.9926797151565552,0.11760980635881424,-0.027286967262625694,0.003232880262658
0.09852259692590044,21.002581318735793,0.04712549254082163,4.067982999256265,0.07552541952201576,0.3237716537379903,0.9232667916289317,13.551928520202637,-3.1557776927948,-2.6033832867256024e-08,4.414106022713442,19.265186391847568,19.803696811269663,0.9926385283470154,0.117942675948143,-0.027343543246388435,0.00324888713657856
0.09902271163110805,21.00498889686217,0.06073955786402841,4.035632193929049,0.07546015103710778,0.3236625574675374,0.9233727947323649,13.590152740478516,-3.1623716354370117,7.741045138232039e-09,4.410019384563131,19.257240875912434,19.79494958633975,0.9925975799560547,0.11827358603477478,-0.027399573475122452,0.0032648134510964155
0.09952282633631568,21.00784941035353,0.07401623224294372,4.0028648511481695,0.0753923529637358,0.3235515415092329,0.9234776599456699,13.62814998626709,-3.1689021587371826,-2.3684791017331008e-08,4.405793568795349,19.24921618113298,19.786091904690565,0.9925568103790283,0.11860252916812897,-0.027455052360892296,0.003280657110735774
0.10002294104152329,21.011159103489593,0.08695614109922056,3.9696952849600637,0.07532199128124202,0.32343857408311605,0.9235814413103811,13.665921211242676,-3.175368309020996,1.2239245172906976e-09,4.401426411019624,19.241109529084692,19.777120584310417,0.992516040802002,0.11892950534820557,-0.02750997617840767,0.0032964181154966354
0.1005230557467309,21.01491417750688,0.09956015710584613,3.936138125532894,0.0752490348588536,0.32332362270439075,0.9236841954811584,13.703471183776855,-3.1817708015441895,1.4731730502148821e-08,4.396915904480043,19.23291804826447,19.768032393608078,0.9924755096435547,0.11925454437732697,-0.02756434679031372,0.003312095534056425
0.10102317045193852,21.019110795455056,0.11182939794158332,3.902208302856071,0.07517345547937089,0.32320665420772765,0.9237859816735894,13.740799903869629,-3.1881093978881836,-2.5427542738043485e-08,4.39226020164412,19.22463877650791,19.758824054136184,0.992435097694397,0.11957765370607376,-0.0276181623339653,0.0033276884350925684
0.10152328515714613,21.023745087035064,0.12376522380849093,3.867921030192265,0.07509522785907109,0.32308763477224756,0.9238868616102466,13.777905464172363,-3.194383382797241,-4.010866305748095e-08,4.387457615587568,19.216268663486048,19.74949224332627,0.9923948645591736,0.11989882588386536,-0.027671417221426964,0.003343195654451847
0.10202339986235376,21.02881315341558,0.1353692347151477,3.833291787307194,0.07501432966381916,0.32296652994715447,0.9239868994650536,13.814788818359375,-3.200591802597046,-1.4909154799624957e-08,4.382506621174101,19.207804573279223,19.740033597232557,0.9923546314239502,0.12021806091070175,-0.02772410586476326,0.003358616027981043
0.10252351456756137,21.03431107202406,0.14664326752852097,3.7983363035024404,0.07493074152138343,0.32284330467798494,0.9240861618060168,13.85145092010498,-3.206735134124756,1.4549742743952265e-08,4.377405856029832,19.199243287025375,19.73044471328162,0.9923145771026611,0.12053537368774414,-0.02777623012661934,0.003373948624357581
0.103023629272769,21.040234901308825,0.15758939279771944,3.7630705404768796,0.07484444702995738,0.32271792333344107,0.924184717536379,13.887898445129395,-3.2128138542175293,2.05759604909872e-08,4.372154121311861,19.190581505640296,19.720722153025143,0.9922747611999512,0.12085079401731491,-0.0278277900069952,0.0033891929779201746
0.1035237439779766,21.046580685468875,0.16820991135315788,3.727510675042155,0.07475543276289706,0.3225903497327718,0.9242826378342639,13.924126625061035,-3.2188265323638916,1.3327256631612272e-08,4.366750382271118,19.18181585260685,19.710862444892832,0.9922350645065308,0.12116431444883347,-0.027878781780600548,0.0034043481573462486
0.10402385868318421,21.053344459147922,0.17850735068495208,3.6916730817177457,0.07466368826968658,0.32246054717367073,0.9243799960908431,13.960134506225586,-3.2247729301452637,-3.5674882492564564e-10,4.361193768609755,19.17294287683103,19.700862086943605,0.9921954274177551,0.12147592753171921,-0.027929197996854782,0.003419412299990654
0.10452397338839184,21.060522252089285,0.18848446110464137,3.655574315231123,0.07456920607315039,0.32232847846065604,0.9244768678471075,13.995930671691895,-3.23065447807312,-3.569364181998935e-08,4.355483574633514,19.16395905556171,19.690717549612078,0.9921561479568481,0.12178568542003632,-0.02797904796898365,0.0034343861043453217
0.10502408809359945,21.06811009374828,0.19814421169461677,3.6192310929483225,0.0744719816629366,0.3221941059338977,0.9245733307292767,14.031506538391113,-3.2364673614501953,1.496272616918759e-08,4.349619259199975,19.1548607973717,19.68042527844858,0.9921168088912964,0.12209352850914001,-0.02802831120789051,0.0034492667764425278
0.10552420279880707,21.076104017859198,0.20748978604990673,3.582660277260252,0.07437201348530026,0.3220573914984591,0.9246694643829201,14.066869735717773,-3.2422146797180176,3.828340311429201e-09,4.343600445463644,19.145644445197192,19.66998169685028,0.9920777082443237,0.12239950895309448,-0.028077000752091408,0.0034640543162822723
0.10602431750401468,21.08450006695326,0.21652457781724374,3.5458788579497855,0.07426930292922078,0.32191829665391863,0.9247653504058276,14.102014541625977,-3.247893810272217,-3.132945458617087e-09,4.3374269204192775,19.13630627943298,19.659383208781726,0.9920386672019958,0.12270361185073853,-0.028125103563070297,0.0034787473268806934
0.10652443220922231,21.09329429682492,0.2252521860366029,3.5089039345645303,0.07416385430889229,0.3217767825243374,0.9248610722796982,14.136948585510254,-3.2535061836242676,-1.260925674984037e-08,4.331098634244919,19.126842521080604,19.64862620148283,0.9919998645782471,0.12300586700439453,-0.028172627091407776,0.0034933455754071474
0.10702454691442992,21.10248278094314,0.23367641029066205,3.471752698819857,0.07405567484263201,0.3216328098885382,0.9249567153006868,14.17166805267334,-3.259049892425537,1.4482876231625141e-08,4.3246156994466025,19.117249334946763,19.637707048162675,0.9919611215591431,0.12330625206232071,-0.0282195582985878,0.003507847199216485
0.10752466161963753,21.112061614804865,0.24180124566788666,3.434442417056534,0.07394477462825462,0.3214863392106635,0.925052366508877,14.206177711486816,-3.2645263671875,-8.105928372970084e-09,4.317978389806681,19.107522832888964,19.626622110677488,0.9919226169586182,0.12360480427742004,-0.028265902772545815,0.0035222519654780626
0.10802477632484515,21.122026920227807,0.2496308775451926,3.396990412776905,0.07383116661496648,0.3213373306709771,0.9251481146167148,14.24047565460205,-3.2699341773986816,3.2382722281454335e-08,4.311187139138184,19.09765907710599,19.615367742191545,0.9918842911720276,0.12390150874853134,-0.028311656787991524,0.0035365589428693056
0.10852489103005276,21.13237484957957,0.2571696761963808,3.3594140492832487,0.07371486657183833,0.32118574419687784,0.9252440499364754,14.27455997467041,-3.275273323059082,-1.8265861712052356e-08,4.304242539847737,19.087654083469864,19.603940289819462,0.9918460845947266,0.1241963803768158,-0.02835681661963463,0.0035507665015757084
0.10902500573526039,21.143101589940642,0.2644221912327631,3.321730712441433,0.07359589305291844,0.32103153949409075,0.9253402643067979,14.308431625366211,-3.2805428504943848,-2.1329706001438353e-08,4.29714534130986,19.07750382489693,19.592336097248822,0.9918079376220703,0.12448939681053162,-0.02840137667953968,0.0035648737102746964
0.109525120440468,21.154203367198335,0.2713931458826362,3.2839577935925726,0.0734742673590541,0.32087467607800274,0.9254368510183506,14.342097282409668,-3.2857439517974854,-1.088342393984476e-08,4.289896448055723,19.067204234754872,19.580551507342005,0.9917700886726379,0.12478059530258179,-0.028445342555642128,0.0035788805689662695
0.11002523514567562,21.16567645006919,0.2780874311164658,3.2461126726348377,0.07335001349649206,0.32071511330510993,0.9255339047386698,14.375551223754883,-3.2908756732940674,-2.7047957207315676e-09,4.282496917779601,19.05675121030289,19.56858286471621,0.9917323589324951,0.12506996095180511,-0.028488706797361374,0.0035927852150052786
0.11052534985088323,21.177517154047308,0.28451009962485296,3.208212701297113,0.0732231581323335,0.32055281040454797,0.9256315214362287,14.408795356750488,-3.2959375381469727,3.498627387799047e-09,4.274947959166547,19.046140616162422,19.556426518301034,0.9916948080062866,0.1253575086593628,-0.02853146754205227,0.0036065871827304363
0.11102546455609084,21.189721845276118,0.29066635965655424,3.1702751866255103,0.07309373054692282,0.3203877265096675,0.9257297983037865,14.441827774047852,-3.3009283542633057,1.560085038931902e-08,4.267250929544995,19.03536828781498,19.544078823872407,0.9916573166847229,0.12564322352409363,-0.028573619201779366,0.0036202846094965935
0.11152557926129847,21.202286944341324,0.29656156872401407,3.132317374703345,0.07296176258325399,0.3202198206896282,0.9258288336810576,14.474654197692871,-3.305849552154541,2.919444419546835e-08,4.25940733236833,19.024430035124794,19.53153614656272,0.9916200637817383,0.12592713534832,-0.02861516736447811,0.0036338779609650373
0.11202569396650608,21.21520892998251,0.3022012271840349,3.094356434624352,0.07282728859347956,0.32004905198098055,0.9259287269767648,14.507274627685547,-3.3107004165649414,-3.5986935653653518e-09,4.251418814529401,19.013321645883096,19.518794863346233,0.991582989692688,0.12620925903320312,-0.02865610644221306,0.003647365840151906
0.1125258086717137,21.22848434272135,0.3075909717013854,3.056409442738455,0.07269034538261433,0.3198753794192021,0.9260295785901138,14.539684295654297,-3.3154797554016113,4.5140691184997195e-09,4.2432871635125124,19.002038889371065,19.505851365499424,0.9915459752082825,0.1264895498752594,-0.02869643084704876,0.003660746617242694
0.11302592337692131,21.242109788404306,0.31273656860328775,3.018493367188577,0.07255097214952606,0.31969876207016124,0.9261314898317464,14.57188892364502,-3.3201889991760254,2.1865531607545563e-08,4.235014304387324,18.99057751993875,19.49270206103572,0.9915092587471008,0.1267680525779724,-0.028736146166920662,0.0036740205250680447
0.11352603808212894,21.256081941657502,0.3176439071328719,2.980625052756368,0.07240921042530993,0.31951915906147954,0.9262345628442107,14.603886604309082,-3.324826955795288,3.5821050570206125e-09,4.226602296649461,18.978933280596994,19.479343377114514,0.9914726614952087,0.12704475224018097,-0.028775248676538467,0.0036871861666440964
0.11402615278733655,21.27039754925197,0.32231899260980645,2.9428212060339565,0.07226510400914653,0.3193365296137611,0.9263389005220088,14.635677337646484,-3.3293936252593994,3.056420183611408e-08,4.218053330912716,18.967101906619313,19.465771762423866,0.991436243057251,0.12731966376304626,-0.028813734650611877,0.0037002433091402054
0.11452626749254416,21.285053433377502,0.32676793950643435,2.905098380938107,0.07211869890174544,0.319150833071667,0.9264446064312591,14.66726016998291,-3.3338890075683594,-2.612290650461091e-08,4.209369725457968,18.95507912915114,19.451983689536995,0.9914000034332275,0.1275927722454071,-0.028851604089140892,0.0037131893914192915
0.11502638219775178,21.30004649482268,0.3309969644478388,2.867472964582337,0.07197004323647954,0.318962028934801,0.9265517847290251,14.698637962341309,-3.3383126258850098,-4.865773117757044e-09,4.200553922644083,18.942860678823266,19.43797565724213,0.9913639426231384,0.12786409258842468,-0.028888855129480362,0.0037260253448039293
0.1155264969029594,21.31537371606015,0.3350123791443564,2.8299611635218387,0.07181918720831681,0.3187700768883874,0.9266605400823658,14.72980785369873,-3.342663526535034,2.0463073013843314e-08,4.19160848518615,18.930442289366663,19.423744192845653,0.9913279414176941,0.1281336098909378,-0.02892548218369484,0.0037387493066489697
0.11602661160816702,21.331032164234745,0.33882058326513903,2.7925789903851737,0.07166618300066006,0.31857493683370797,0.9267709775871331,14.760775566101074,-3.3469431400299072,-3.26709574949291e-08,4.1825360923067825,18.917819701226,19.40928585444869,0.9912922382354736,0.12840136885643005,-0.02896149270236492,0.003751361044123769
0.11652672631337463,21.347018994053315,0.3424280572614305,2.7553422509059216,0.0715110847102047,0.318376568918282,0.9268832026865937,14.791539192199707,-3.3511505126953125,-2.5081025256668e-08,4.1733395357659715,18.904988665168737,19.394597233196677,0.9912567138671875,0.12866733968257904,-0.02899687923491001,0.003763859625905752
0.11702684101858225,21.36333145057442,0.3458413551482851,2.7182665313666052,0.07135394826992987,0.31817493356575755,0.9269973210898995,14.822093963623047,-3.355285167694092,-3.160446127026262e-08,4.164021715775571,18.891944945886976,19.379674955502203,0.9912212491035461,0.12893150746822357,-0.02903164178133011,0.003776243655011058
0.11752695572378986,21.379966871896773,0.34906709725347784,2.681367186466396,0.07119483137033598,0.3179699915054963,0.9271134386904596,14.85244369506836,-3.3593482971191406,-5.932975777334093e-10,4.154585636804242,18.878684325589475,19.364515685240985,0.9911860823631287,0.12919390201568604,-0.029065782204270363,0.0037885133642703295
0.11802707042899747,21.396922691744866,0.35211196294238944,2.644659327623233,0.07103379337904708,0.3177617038018293,0.9272316614842689,14.88259220123291,-3.3633387088775635,-6.955493514482214e-09,4.145034403279007,18.865202607580716,19.34911612592105,0.9911510944366455,0.12945452332496643,-0.029099298641085625,0.0038006675895303488
0.1185271851342051,21.414196441950708,0.3549826833276426,2.6081578117201007,0.07087089525889462,0.31755003188295855,0.9273520954882297,14.912528991699219,-3.367255926132202,-1.88829769598442e-08,4.135371215189629,18.851495619824295,19.333473022825007,0.9911161661148071,0.12971334159374237,-0.029132187366485596,0.00381270470097661
0.11902729983941271,21.431785754830347,0.3576860339722626,2.5718772303043855,0.07070619948460094,0.3173349375694894,0.9274748466585155,14.942265510559082,-3.3711013793945312,4.203422321324979e-08,4.125599363602027,18.83755921848798,19.317583165125576,0.9910815358161926,0.12997040152549744,-0.029164453968405724,0.003824625862762332
0.11952741454462033,21.449688365454318,0.3602288275951083,2.535831899248322,0.07053976995818476,0.3171163831025705,0.9276000208090354,14.971792221069336,-3.374873399734497,-3.4233982315612366e-09,4.1157222260872555,18.823389291467407,19.3014433879742,0.9910469651222229,0.13022565841674805,-0.02919609099626541,0.003836427815258503
0.12002752924982794,21.467902113810858,0.36261790678728106,2.500035848877652,0.07037167192320537,0.31689433117162447,0.9277277235300229,15.001119613647461,-3.378573417663574,3.252863089997504e-09,4.105743262072359,18.808981761886017,19.285050574562934,0.991012692451477,0.13047915697097778,-0.029227105900645256,0.0038481124211102724
0.12052764395503557,21.48642494686106,0.36486013674816953,2.4645028145747685,0.07020197187796987,0.3166687449416504,0.9278580601068238,15.030240058898926,-3.3822007179260254,1.3760050876499008e-08,4.095666008119753,18.794332591568057,19.26840165815938,0.9909785985946655,0.13073086738586426,-0.02925749681890011,0.003859677817672491
0.12102775866024318,21.50525492048536,0.3669623980497141,2.429246227861734,0.07003073748782232,0.3164395880800839,0.9279911354389015,15.059157371520996,-3.3857553005218506,3.069408549549735e-08,4.085494073141689,18.77943778448253,19.251493624114882,0.9909446835517883,0.13098080456256866,-0.02928726188838482,0.0038711235392838717
0.12152787336545079,21.524390201320127,0.3689315794374059,2.394279207967657,0.06985803749663703,0.3162068247831948,0.9281270539591345,15.087868690490723,-3.389237642288208,-5.002231162620774e-08,4.075231133556385,18.76429339015475,19.234323511845496,0.9909109473228455,0.1312289834022522,-0.029316401109099388,0.003882448887452483
0.12202798807065841,21.543829068484353,0.370774570676424,2.359614553884066,0.06968394163763694,0.315970419802015,0.9282659195534267,15.116377830505371,-3.3926472663879395,-3.904575862634374e-08,4.064880928392607,18.748895507043706,19.216888416786343,0.9908774495124817,0.13147537410259247,-0.029344916343688965,0.003893653629347682
0.12252810277586602,21.563569915195576,0.37249825545121784,2.325264736911073,0.06950852054365819,0.3157303384677724,0.9284078354807005,15.144676208496094,-3.3959832191467285,1.3735897752553683e-08,4.054447254349336,18.73324028588166,19.199185492318286,0.9908440113067627,0.13171997666358948,-0.0293728020042181,0.00390473660081625
0.12302821748107365,21.583611250274483,0.3741095043267054,2.2912418936961654,0.06933184565698061,0.31548654671682635,0.9285529042932977,15.172774314880371,-3.399247407913208,3.792804736946209e-09,4.043933960817267,18.71732393297434,19.181211951667628,0.9908108711242676,0.13196280598640442,-0.029400067403912544,0.003915697336196899
0.12352833218628126,21.60395169953823,0.3756151677791193,2.2575578197667263,0.06915398913884452,0.31523901111509284,0.9287012277578556,15.200667381286621,-3.402439594268799,-3.965924477711269e-08,4.033344944868865,18.701142713458744,19.16296506977822,0.9907779097557068,0.1322038620710373,-0.029426712542772293,0.003926535602658987
0.12402844689148888,21.62459000708184,0.37702206930438953,2.2242239635564642,0.06897502377877249,0.31498769888193967,0.9288529067766903,15.228353500366211,-3.405559539794922,-6.945632069488283e-09,4.0226841462237335,18.68469295451592,19.144442185155576,0.9907451868057251,0.1324431300163269,-0.0294527355581522,0.003937250934541225
0.1245285615966965,21.645525036447655,0.3783369986117826,2.19125142092514,0.06879502290381376,0.3147325779135528,0.9290080413097376,15.255830764770508,-3.4086060523986816,2.4155591304975133e-08,4.011955542195997,18.6679710485369,19.125640701683178,0.9907125234603882,0.13268060982227325,-0.029478134587407112,0.00394784240052104
0.12502867630190412,21.666755771682862,0.37956670491034533,2.158650930170206,0.0686140602878288,0.31447361680575736,0.9291667302971031,15.28310775756836,-3.411581516265869,2.9952211377803906e-08,4.001163142630427,18.650973456238727,19.106558090410243,0.9906801581382751,0.13291631639003754,-0.02950291708111763,0.003958310000598431
0.12552879100711173,21.688281318284872,0.3807178902955199,2.1264328675281354,0.06843221006092873,0.3142107848762869,0.92932907158226,15.310176849365234,-3.414485454559326,-1.3256075348522245e-08,3.9903109848339633,18.633696709728746,19.0871918913107,0.9906480312347412,0.13315023481845856,-0.029527083039283752,0.003968652803450823
0.12602890571231934,21.71010090403487,0.3817972032430968,2.0946072431624865,0.06824954661918428,0.31394405218649607,0.9294951618359497,15.337043762207031,-3.4173173904418945,2.940153187580563e-08,3.9794031285092797,18.616137415514572,19.067539715013005,0.9906160831451416,0.1333823800086975,-0.02955063246190548,0.003978871274739504
0.12652902041752695,21.732213879719545,0.3828112322174723,2.063183697634946,0.06806614453471659,0.31367338956250507,0.9296650964808234,15.363701820373535,-3.4200778007507324,-5.23912291328088e-08,3.9684436506969973,18.598292257457558,19.047599244500145,0.9905843138694763,0.1336127370595932,-0.02957356907427311,0.003988964017480612
0.1270291351227346,21.754619719741285,0.3837664994009501,2.0321714988549333,0.06788207846627942,0.3133987686157781,0.9298389696168765,15.39015007019043,-3.4227662086486816,3.623165767407954e-08,3.9574366407329995,18.580157999667854,19.027368236779562,0.9905526638031006,0.13384129106998444,-0.029595889151096344,0.003998931497335434
0.1275292498279422,21.777318022617415,0.38466945455061663,2.00157953950257,0.0676974230704431,0.3131201617631219,0.9300168739477217,15.416397094726562,-3.425384283065796,5.910381162266276e-08,3.946386195227398,18.561731489338374,19.006844524522013,0.9905213117599487,0.1340680718421936,-0.02961760386824608,0.004008773248642683
0.1280293645331498,21.800308511368588,0.3855264689890623,1.9714163349191482,0.06751225291348496,0.3128375422461091,0.9301989007077469,15.442435264587402,-3.427931785583496,-7.378794020240775e-09,3.935296413071416,18.54300965951614,18.986026017669097,0.990490198135376,0.13429304957389832,-0.029638709500432014,0.004018487874418497
0.12852947923835742,21.823591033797115,0.3863438297349961,1.941690021458584,0.06732664238409145,0.3125508841499177,0.9303851395901956,15.468267440795898,-3.430408239364624,-2.8759037817849276e-08,3.924171390478567,18.523989531808812,18.964910705008645,0.9904592633247375,0.13451623916625977,-0.02965920977294445,0.0040280758403241634
0.12902959394356503,21.847165562655775,0.38712773377952675,1.9124083552926545,0.06714066560697449,0.3122601624215879,0.9305756786762336,15.493892669677734,-3.432814598083496,2.4018330435637836e-08,3.9130152160662828,18.504668219024293,18.94349665571704,0.9904285669326782,0.13473762571811676,-0.029679106548428535,0.004037537612020969
0.12952970864877267,21.8710321957078,0.3878842825136206,1.8835787116621796,0.06695439635750049,0.31196535288769217,0.9307706043650306,15.519307136535645,-3.4351513385772705,1.948697914144759e-08,3.901831965984064,18.485042927741713,18.921782020867944,0.9903980493545532,0.1349572241306305,-0.029698403552174568,0.00404687225818634
0.13002982335398028,21.895191155678866,0.3886194763119681,1.8552080845657835,0.06676790797743046,0.3116664322714226,0.9309700013049054,15.544514656066895,-3.4374172687530518,3.97475936608771e-08,3.8906256990942127,18.465110960812133,18.899765034906608,0.9903676509857178,0.13517500460147858,-0.0297170989215374,0.004056078847497702
0.1305299380591879,21.91964279010201,0.38933920927820925,1.8273030868772169,0.06658127329186382,0.31136337820909,0.9311739523255929,15.5695161819458,-3.439614772796631,3.637806145206923e-08,3.879400452210843,18.444869719786738,18.877444017088518,0.990337610244751,0.1353909969329834,-0.029735203832387924,0.004065158311277628
0.1310300527643955,21.944387571056364,0.3900492641561967,1.7998699508817915,0.0663945645274785,0.31105616926604107,0.931382538371652,15.59430980682373,-3.4417431354522705,3.5612714555099956e-08,3.868160235403048,18.424316707271487,18.85481737288209,0.9903077483177185,0.13560518622398376,-0.029752716422080994,0.004074110183864832
0.13153016746960314,21.96942609480079,0.3907553074116768,1.7729145292219197,0.06620785323215427,0.3107447849519912,0.9315958384370885,15.61889362335205,-3.443802833557129,6.725270651486426e-08,3.8569090273676045,18.40344952920599,18.831883595333746,0.9902781248092651,0.13581757247447968,-0.029769640415906906,0.004082934465259314
0.13203028217481075,21.994759081303563,0.39146288448849376,1.7464422962413044,0.06602121019606595,0.31042920573577837,0.9318139295012076,15.643270492553711,-3.445794105529785,2.745208504961738e-08,3.8456507708768095,18.382265897065658,18.80864126639505,0.9902487397193909,0.13602814078330994,-0.02978597953915596,0.004091630224138498
0.13253039688001836,22.02038737366922,0.39217741524311256,1.7204583497168655,0.06583470537432701,0.3101094130595378,0.9320368864657708,15.667435646057129,-3.4477176666259766,-3.4384357583405745e-09,3.8343893683065065,18.360763629985016,18.78508905821012,0.9902195334434509,0.13623689115047455,-0.029801737517118454,0.004100197926163673
0.13303051158522597,22.0463119374641,0.3929041895609719,1.69496741296712,0.0656484078112633,0.30978538935230326,0.9322647820934616,15.691389083862305,-3.449572801589966,5.46742207063744e-08,3.8231286772495956,18.338940656801554,18.76122573436312,0.9901904463768005,0.1364438235759735,-0.02981691248714924,0.004108638036996126
0.13353062629043358,22.072533859941462,0.3936483631578734,1.6699738373252835,0.06546238556639213,0.3094571180430359,0.9324976869477472,15.715133666992188,-3.451361656188965,4.986062407397185e-08,3.811872506219741,18.316795018017867,18.7370501510837,0.9901617169380188,0.13664895296096802,-0.02983151748776436,0.004116949625313282
0.13403074099564122,22.09905434916822,0.3944149535693069,1.6454816049650796,0.06527670564217826,0.3091245835730902,0.9327356693341361,15.738669395446777,-3.4530842304229736,-1.8579671134943965e-08,3.8006246104501558,18.294324867681865,18.712561258410346,0.9901332259178162,0.13685224950313568,-0.029845552518963814,0.004125132691115141
0.13453085570084883,22.125874733054154,0.3952088363303176,1.6214943320668813,0.0650914339136358,0.30878777140811325,0.9329787952429027,15.761996269226074,-3.454740285873413,3.5249275498472343e-08,3.7893886877919276,18.271528475182855,18.687758101309438,0.9901049137115479,0.1370537281036377,-0.029859021306037903,0.004133188631385565
0.13503097040605644,22.152996458285806,0.3960347413482049,1.5980152723115366,0.06490663505984051,0.3084466680493926,0.9332271282933033,15.785109519958496,-3.4563302993774414,2.917898633825189e-08,3.778168374716259,18.24840422696327,18.662639820749675,0.9900768399238586,0.13725337386131287,-0.029871927574276924,0.004141116049140692
0.13553108511126405,22.180421089166188,0.39689724947004396,1.5750473206889741,0.06472237249741455,0.3081012610446497,0.9334807296793307,15.808011054992676,-3.457855463027954,1.802895965852258e-08,3.766967242424796,18.224950628144445,18.637205654730185,0.9900490045547485,0.1374512016773224,-0.029884275048971176,0.004148915410041809
0.13603119981647166,22.208150306362285,0.39780078924670625,1.5525930176084648,0.06453870831604003,0.3077515389982879,0.9337396581170436,15.830704689025879,-3.4593160152435303,3.1337759054395065e-09,3.7557887930719267,18.20116630406561,18.611454939261154,0.9900214076042175,0.13764719665050507,-0.029896069318056107,0.004156587179750204
0.1365313145216793,22.236185905562056,0.39874963389474694,1.5306545532972156,0.06435570321605727,0.30739749158110485,0.9340039697935069,15.853180885314941,-3.4607112407684326,-1.5588419444156898e-08,3.744636456102899,18.177050001735633,18.5853871092962,0.9899939298629761,0.1378413289785385,-0.029907310381531715,0.004164129961282015
0.1370314292268869,22.264529796042755,0.3997478984572146,1.5092337724738278,0.06417341644819664,0.3070391095394688,0.9342737183173864,15.875445365905762,-3.462043523788452,2.1430606622629966e-08,3.73351358471119,18.152600591196084,18.559001699614672,0.9899668097496033,0.1380336433649063,-0.029918011277914047,0.004171546082943678
0.13753154393209452,22.29318399915259,0.4007995371641487,1.4883321792830095,0.06399190575549199,0.3066763847039701,0.9345489546712245,15.897500038146973,-3.463312864303589,7.253538214513355e-09,3.7224234524185356,18.127817066795465,18.532298345653174,0.9899399280548096,0.13822411000728607,-0.029928170144557953,0.004178834147751331
0.13803165863730213,22.322150646707353,0.40190834099323247,1.46795094247782,0.06381122731741844,0.3063093099975548,0.9348297271654444,15.91933822631836,-3.4645183086395264,-7.244902455738611e-09,3.7113692497806863,18.102698548373667,18.505276784284852,0.9899131655693054,0.1384127289056778,-0.02993779070675373,0.0041859946213662624
0.13853177334250977,22.351431979304454,0.40307793543077597,1.4480909008356717,0.06363143569629451,0.3059378794431475,0.9351160813941025,15.940963745117188,-3.465662956237793,-1.4367293132977466e-08,3.700354081221836,18.077244282356435,18.47793685454562,0.9898867607116699,0.13859951496124268,-0.029946886003017426,0.004193028900772333
0.13903188804771738,22.381030344556127,0.40431177843292476,1.4287525687942633,0.06345258378598397,0.3055620881707669,0.9354080601924342,15.96237850189209,-3.466745615005493,3.788188607245502e-08,3.6893809620003357,18.051453642758947,18.45027849830568,0.9898605942726135,0.13878445327281952,-0.029955454170703888,0.004199936520308256
0.139532002752925,22.410948195243982,0.4056131585867038,1.4099361422935908,0.0632747227629307,0.3051819324241493,0.9357057035962191,15.983575820922852,-3.467766523361206,-1.1103023389580358e-08,3.678452815308223,18.025326132098627,18.422301760885777,0.9898345470428467,0.13896751403808594,-0.029963497072458267,0.004206715617328882
0.1400321174581326,22.44118808739714,0.40698519347023215,1.391641504810259,0.06309790203955393,0.3047974095668814,0.9360090488029955,16.00456428527832,-3.46872878074646,-4.52676189865997e-08,3.667572469506718,17.99886138221666,18.394006791616853,0.989808976650238,0.1391487568616867,-0.029971033334732056,0.004213370382785797
0.1405322321633402,22.471752678296095,0.4084308282111736,1.3738682335702714,0.06292216922003016,0.3044085180880501,0.9363181301351614,16.02532958984375,-3.4696292877197266,-2.2311848368872234e-08,3.656742655499747,17.9720591550078,18.365393844341803,0.9897834062576294,0.13932810723781586,-0.02997804991900921,0.00421989755704999
0.14103234686854785,22.502644724404522,0.4099528342422278,1.3566156059266594,0.06274757005848235,0.30401525760742165,0.9366329790049742,16.045883178710938,-3.470471143722534,1.528411175399924e-08,3.6459660042472612,17.94491934305885,18.336463277858932,0.9897581934928894,0.13950559496879578,-0.02998456545174122,0.004226299934089184
0.14153246157375546,22.533867079231516,0.41155380825220667,1.3398826058883047,0.06257414841959445,0.3036176288801549,0.9369536238814923,16.066219329833984,-3.471254825592041,1.3114205721365124e-08,3.635245044419873,17.917441970195487,18.307215556305735,0.9897332191467285,0.13968122005462646,-0.029990581795573235,0.0042325761169195175
0.14203257627896307,22.565422691126322,0.4132361713309901,1.323667930786536,0.062401946241665666,0.30321563380105276,0.937280090259479,16.08633804321289,-3.471980333328247,-2.8321219147642296e-08,3.6245822001961403,17.889627191937173,18.2776512494819,0.9897084832191467,0.13985496759414673,-0.029996104538440704,0.0042387270368635654
0.14253269098417068,22.59731460100814,0.415002168306415,1.3079699980661696,0.06223100350211516,0.30280927540836666,0.9376124006302837,16.106246948242188,-3.472649097442627,2.4461395131680774e-09,3.6139797892036256,17.86147529586095,18.247771033111327,0.9896841049194336,0.14002686738967896,-0.030001141130924225,0.0042447540909051895
0.1430328056893783,22.629545940033413,0.4168538672709201,1.2927869521878603,0.062061358185444504,0.3023985578871557,0.9379505744547354,16.125930786132812,-3.473259449005127,-3.6021212679315795e-08,3.6034400206045536,17.832986701873725,18.21757568904174,0.9896597862243652,0.14019685983657837,-0.03000568598508835,0.0042506554163992405
0.14353292039458593,22.66211992720274,0.4187931592955429,1.2781166716288523,0.06189304625366175,0.30198348657220914,0.93829462813806,16.145401000976562,-3.4738147258758545,-2.4485644067873125e-10,3.5929649933267376,17.804161962393618,18.187066105381437,0.9896358251571655,0.14036498963832855,-0.030009757727384567,0.004256433807313442
0.14403303509979354,22.69503986691043,0.4208217583286586,1.2639567759694013,0.06172610161916755,0.30156406795054064,0.9386445750068457,16.164653778076172,-3.4743144512176514,-5.207962061604121e-08,3.5825566944401688,17.775001762440642,18.156243276572503,0.9896121025085449,0.1405312418937683,-0.03001335635781288,0.004262087866663933
0.14453314980500115,22.728309146438587,0.42294120127664303,1.2503046330523953,0.06156055612010115,0.30114030966345895,0.9390004252880693,16.18368911743164,-3.4747588634490967,-3.189447639329046e-08,3.5722169976795226,17.745506919637183,18.12510830339975,0.9895886182785034,0.14069560170173645,-0.03001648746430874,0.0042676194570958614
0.14503326451020876,22.7619312333987,0.425152848263451,1.2371573662039468,0.06139643949814071,0.30071222050822405,0.9393621860902072,16.20250129699707,-3.475148916244507,3.3631728513228154e-08,3.561947662112548,17.715678384118704,18.093662392934963,0.9895653128623962,0.14085805416107178,-0.030019154772162437,0.0042730276472866535
0.1455333792154164,22.795909673122885,0.427457883065918,1.224511861503013,0.06123377937874817,0.30027981043929336,0.9397298613864312,16.221099853515625,-3.4754865169525146,-3.023196626372737e-08,3.5517503309541216,17.685517238355484,18.06190685841605,0.9895424842834473,0.14101864397525787,-0.03002137318253517,0.004278313834220171
0.146033493920624,22.83024808600788,0.42985731372141167,1.2123647750884081,0.061072601253848724,0.2998430905691658,0.9401034519999185,16.23947525024414,-3.475769519805908,-2.8471866642121313e-08,3.5416265305255985,17.65502469688578,18.0298431190605,0.9895196557044983,0.14117732644081116,-0.030023135244846344,0.004283478017896414
0.14653360862583162,22.86495016481356,0.4323519733043013,1.200712540491875,0.06091292846692866,0.29940207316882983,0.9404829555912738,16.257638931274414,-3.4760019779205322,-4.836662270690795e-08,3.531577669358762,17.624202105961412,17.997472699813144,0.9894973039627075,0.1413341462612152,-0.030024459585547447,0.004288522060960531
0.14703372333103923,22.9000196719195,0.43494252086755175,1.18955137598624,0.060754782200535776,0.2989567716678186,0.9408683666480714,16.27557945251465,-3.476181983947754,-2.0096395658697475e-08,3.5216050374436874,17.59305094310646,17.964797231027806,0.9894751310348511,0.14148905873298645,-0.030025340616703033,0.004293445032089949
0.14753383803624684,22.93546043654133,0.43762944254560937,1.1788772919379942,0.06059818146616133,0.2985072006538831,0.9412596764765391,16.29330062866211,-3.4763107299804688,-2.0503705400187755e-08,3.5117098056193634,17.561572816589948,17.93181844808282,0.9894531965255737,0.14164206385612488,-0.030025789514183998,0.004298247396945953
0.14803395274145448,22.971276351910035,0.4404130528146085,1.1686860981540412,0.06044314309648144,0.2980533758722835,0.9416568731953688,16.310802459716797,-3.4763894081115723,-1.99690770585903e-08,3.501893025106013,17.529769464813626,17.898538190930424,0.9894315600395203,0.1417931616306305,-0.03002581186592579,0.00430293008685112
0.1485340674466621,23.007471372416543,0.443293495905812,1.1589734112126922,0.06028968173993309,0.29759531422470475,0.94205994173167,16.328075408935547,-3.4764177799224854,-5.1520416377570655e-08,3.4921556271776937,17.497642755615676,17.8649584035799,0.9894100427627563,0.1419423371553421,-0.030025409534573555,0.004307492636144161
0.1490341821518697,23.044049510724403,0.4462707473680759,1.1497346617693924,0.06013780985759695,0.2971330337678046,0.9424688638190634,16.34514045715332,-3.476398229598999,4.9564157222903305e-09,3.4824984229736184,17.465194685491642,17.831081133514914,0.9893890023231506,0.14208965003490448,-0.03002459928393364,0.0043119387701153755
0.1495342968570773,23.081014834852883,0.4493446157750448,1.1409651018280578,0.05998753772235774,0.2966665537113936,0.9428836179979181,16.36197853088379,-3.476330280303955,-4.669018949243764e-08,3.4729221034465216,17.43242737873358,17.79690853104497,0.9893681406974792,0.14223504066467285,-0.030023375526070595,0.004316265694797039
0.15003441156228492,23.118371465233306,0.4525147445726854,1.1326598119692943,0.059838873420309795,0.29619589441625394,0.9433041796177123,16.378597259521484,-3.4762141704559326,-1.8242905852616786e-08,3.4634272394462045,17.39934308648893,17.7624428485917,0.989347517490387,0.1423785239458084,-0.030021747574210167,0.004320475738495588
0.15053452626749256,23.15612357174125,0.45578061406270615,1.1248137085271857,0.0596918228543747,0.29572107739160086,0.9437305208415427,16.394990921020508,-3.4760499000549316,8.993419342573361e-09,3.4540142819361823,17.36594418574001,17.727686439910034,0.989327073097229,0.14252008497714996,-0.030019717290997505,0.004324568435549736
0.15103464097270017,23.194275370707036,0.4591415435173276,1.117421550706752,0.059546389750094665,0.2952421252921893,0.9441626106527442,16.411169052124023,-3.475841522216797,2.1529272586917614e-08,3.4446835623413476,17.33223317820599,17.692641759245138,0.9893071055412292,0.1426597535610199,-0.030017301440238953,0.004328545648604631
0.15153475567790778,23.23283112190719,0.4625966934208198,1.110477947634574,0.0594025756635646,0.2947590619150714,0.9446004148636306,16.427120208740234,-3.475585460662842,2.8274300234443217e-08,3.4354352930242884,17.2982126891685,17.657311360425695,0.9892871975898743,0.14279748499393463,-0.030014492571353912,0.0043324064463377
0.1520348703831154,23.27179512553953,0.4661450678331717,1.1039773653355167,0.059260379991464114,0.2942719121960045,0.9450438961263402,16.442855834960938,-3.4752862453460693,-3.2359469770426585e-08,3.426269567887878,17.263885466222394,17.621697895894062,0.9892677664756775,0.14293333888053894,-0.030011311173439026,0.004336153157055378
0.15253498508832303,23.31117171918422,0.4697855168712209,1.0979141336289129,0.05911979998314871,0.2937807022055158,0.9454930139457652,16.45836639404297,-3.4749412536621094,-4.553663401907215e-08,3.4171863631016053,17.229254377953417,17.58580411567458,0.9892483949661255,0.14306725561618805,-0.030007746070623398,0.004339785315096378
0.15303509979353064,23.35096527475366,0.47351673930253435,1.0922824529379858,0.05898083075475852,0.29328545914462484,0.9459477246945694,16.47365951538086,-3.4745538234710693,-1.8516544741942198e-08,3.408185537948923,17.194322412544114,17.549632866280458,0.9892295002937317,0.14319927990436554,-0.03000381961464882,0.00434330478310585
0.15353521449873825,23.391180195433265,0.47733728524733116,1.087076401006734,0.058843465305301296,0.2927862113402262,0.9464079816302498,16.488723754882812,-3.474121570587158,-4.896724803415964e-08,3.399266835792952,17.15909267631004,17.51318708956081,0.9892106652259827,0.14332935214042664,-0.029999520629644394,0.004346709698438644
0.15403532920394586,23.43182091261621,0.48124555898370597,1.0822899395189107,0.05870769453466584,0.2922829882401352,0.94687373491425,16.50357437133789,-3.4736483097076416,1.3627400541338375e-08,3.390429885157605,17.123568392167602,17.476469821488564,0.9891923069953918,0.1434575468301773,-0.029994869604706764,0.004350004252046347
0.15453544390915347,23.472891882834087,0.48523982185143133,1.0779169206141872,0.05857350726352008,0.2917758204077981,0.9473449316330808,16.518198013305664,-3.473132610321045,2.4460746317345183e-08,3.381674200921255,17.08775289803576,17.43948419089083,0.9891741275787354,0.14358381927013397,-0.02998986281454563,0.0043531861156225204
0.1550355586143611,23.514397584686368,0.4893181952496129,1.0739510932969776,0.058440890255047936,0.2912647395166681,0.9478215158214446,16.53260040283203,-3.4725756645202637,-4.095493366662595e-08,3.372999185619854,17.051649645172965,17.40223341812273,0.989156186580658,0.14370816946029663,-0.029984507709741592,0.004356256686151028
0.15553567331956872,23.556342515770712,0.4934786637235044,1.0703861097338638,0.058309828238477905,0.29074977834425164,0.9483034284873295,16.546783447265625,-3.471977949142456,6.203681568450747e-09,3.3644041308564505,17.01526219645162,17.364720813686336,0.9891385436058044,0.14383059740066528,-0.029978809878230095,0.004359217826277018
0.15603578802477633,23.59873118961691,0.49771907813580596,1.067215531435956,0.058180303934355804,0.2902309707658224,0.9487906076390391,16.560739517211914,-3.4713404178619385,7.691576264790001e-09,3.355888218813978,16.978594224571864,17.3269497767963,0.9891211986541748,0.14395111799240112,-0.029972774907946587,0.004362068604677916
0.15653590272998394,23.641568132626382,0.5020371589178029,1.064432835322931,0.05805229808151347,0.28970835174780524,0.9492829883141448,16.574480056762695,-3.47066330909729,-1.3695079736919524e-08,3.3474505238680345,16.941649510216465,17.288923793893375,0.9891040921211243,0.14406971633434296,-0.029966408386826515,0.0043648104183375835
0.15703601743519155,23.68485788102001,0.506430499395752,1.0620314196658966,0.05792578946568467,0.28918195734083596,0.9497805026103205,16.587995529174805,-3.469947576522827,-2.837063561855757e-08,3.339090014296431,16.90443194014923,17.250646437108056,0.9890872836112976,0.14418640732765198,-0.02995971590280533,0.004367444198578596
0.1575361321403992,23.728604977796167,0.510896569187949,1.0600046099066276,0.05780075494971937,0.28865182467249006,0.9502830797180276,16.601287841796875,-3.46919322013855,-1.2467339161048585e-08,3.330805554082226,16.866945505258634,17.212121362675656,0.98907071352005,0.144301176071167,-0.029952701181173325,0.004369970411062241
0.1580362468456068,23.772813969701545,0.5154327176679865,1.0583456643510618,0.057677169505347146,0.2881179919396888,0.9507906459550219,16.614364624023438,-3.468402624130249,1.5920248230827383e-08,3.322595904806879,16.829194298548952,17.173352309304892,0.9890545606613159,0.1444140523672104,-0.02994537353515625,0.004372390452772379
0.1585363615508144,23.817489404216644,0.5200361774897636,1.0570477797353695,0.05755500624643995,0.2875804984007789,0.9513031248026388,16.627212524414062,-3.4675731658935547,-1.3203271365114233e-08,3.314459727630188,16.791182513081033,17.134343096501848,0.9890384674072266,0.14452499151229858,-0.029937725514173508,0.004374702926725149
0.15903647625602202,23.86263582655848,0.5247040681698775,1.0561040966632036,0.05743423646372522,0.28703938436728843,0.9518204369438283,16.63984489440918,-3.4667084217071533,-5.697957661254804e-10,3.306395585353629,16.75291443986475,17.095097622851263,0.9890228509902954,0.14463405311107635,-0.02992977760732174,0.0043769110925495625
0.15953659096122966,23.908257776702108,0.5294333997230971,1.05550770491316,0.05731482966089919,0.28649469119536125,0.952342500302896,16.65224838256836,-3.465806245803833,7.72057529019321e-09,3.2984019445636954,16.714394465705457,17.055619864257235,0.989007294178009,0.14474116265773773,-0.0299215205013752,0.00437901308760047
0.16003670566643727,23.954359786423673,0.5342210763467033,1.0552516486157406,0.05719675359209219,0.2859464612768686,0.9528692300869033,16.664440155029297,-3.4648702144622803,4.7602211061814614e-09,3.2904771778519244,16.675627071006783,17.01591387214566,0.9889922142028809,0.14484639465808868,-0.029912974685430527,0.004381011705845594
0.16053682037164488,24.000946376366418,0.5390639001495534,1.0553289312995064,0.05707997430063601,0.28539473803019866,0.9534005388287061,16.676406860351562,-3.4638984203338623,1.835473550926281e-09,3.282619566108128,16.636616827531455,16.97598377162998,0.988977313041687,0.14494971930980682,-0.029904130846261978,0.004382906947284937
0.1610369350768525,24.04802205313205,0.5439585749218283,1.0557325208063606,0.05696445615908547,0.2848395658907318,0.953936336431557,16.688154220581055,-3.4628922939300537,-4.672709508213302e-08,3.2748273008836066,16.597368396123496,16.935833759643607,0.988962709903717,0.14505113661289215,-0.0298949982970953,0.00438469834625721
0.1615370497820601,24.09559130639916,0.548901709941488,1.0564553540762471,0.05685016191044592,0.2842809903009923,0.9544765302152527,16.699678421020508,-3.4618523120880127,4.005296361242472e-08,3.267098486820912,16.557886524392973,16.895468103040123,0.9889483451843262,0.14515064656734467,-0.029885582625865936,0.004386388696730137
0.16203716448726774,24.14365860607072,0.553889823813592,1.0574903418017871,0.056737052710558976,0.28371905770048866,0.955021024963771,16.710988998413086,-3.460779905319214,-2.0134955036610336e-08,3.2594311441468937,16.518176044366378,16.854891136664495,0.9889343976974487,0.14524827897548676,-0.029875891283154488,0.004387977067381144
0.16253727919247535,24.192228399452382,0.5589193483387106,1.0588303729536912,0.05662508817159926,0.2831538155152383,0.9555697229743424,16.722070693969727,-3.4596729278564453,-3.376250035103112e-08,3.2518232112257452,16.478241870104817,16.814107261397435,0.9889205098152161,0.14534398913383484,-0.029865916818380356,0.0043894643895328045
0.16303739389768296,24.24130510846338,0.563986632406775,1.0604683191779867,0.056514226406636385,0.2825853121469815,0.9561225241079173,16.732940673828125,-3.4585347175598145,-5.612438069846348e-09,3.2442725471688414,16.438088995292315,16.773120942175428,0.9889070987701416,0.1454378217458725,-0.029855677857995033,0.0043908520601689816
0.16353750860289057,24.290893126881837,0.5690879459128136,1.0623970390663802,0.056404424075215884,0.2820135969620851,0.9566793258409766,16.743589401245117,-3.457364320755005,2.1650299331099632e-08,3.2367769344981334,16.39772249079661,16.73193670598877,0.9888938665390015,0.14552976191043854,-0.029845168814063072,0.004392140079289675
0.16403762330809818,24.3409968176259,0.5742194836911194,1.0646093823012501,0.05629563642991513,0.28143872028014233,0.9572400233186261,16.754018783569336,-3.456162691116333,1.1724812232216664e-09,3.229334081860048,16.357147502205144,16.69055913986065,0.9888809323310852,0.14561980962753296,-0.02983439713716507,0.004393328912556171
0.16453773801330582,24.391620510072485,0.579377369464506,1.0670981936769717,0.05618781736382962,0.28086073336226874,0.9578045094089342,16.76422882080078,-3.454929828643799,-9.774137765816704e-08,3.2219416267867365,16.3163692473383,16.648992888809378,0.988868236541748,0.14570797979831696,-0.029823366552591324,0.004394419491291046
0.16503785271851343,24.44276849741515,0.5845576598053881,1.0698563169994648,0.056080919458948116,0.28027968839910017,0.9583726747584466,16.774227142333984,-3.4536666870117188,2.7105334865495934e-08,3.214597138501789,16.275393013742686,16.607242653796796,0.9888559579849243,0.14579427242279053,-0.029812080785632133,0.004395413678139448
0.16553796742372104,24.49444503406246,0.5897563481055417,1.0728765988659883,0.055974894035374,0.27969563849849616,0.9589444078488347,16.784000396728516,-3.4523725509643555,-3.9052736156008905e-08,3.2072981207673874,16.234224156166672,16.565313189665307,0.9888437986373901,0.14587868750095367,-0.0298005398362875,0.004396309610456228
0.16603808212892865,24.546654333078234,0.5949693685514927,1.076151892327393,0.05586969120135286,0.27910863767295396,0.9595195950546113,16.793561935424805,-3.4510486125946045,4.74538630612642e-09,3.200042014770129,16.19286809402085,16.52320930306645,0.9888319373130798,0.1459612399339676,-0.029788751155138016,0.00439711008220911
0.1665381968341363,24.599400563665217,0.6001926001025862,1.0796750604351237,0.0557652599040668,0.27851874082673844,0.9600981207018631,16.80290412902832,-3.4496958255767822,2.928827669279599e-08,3.192826202042712,16.151330308825823,16.480935850383602,0.9888204336166382,0.14604191482067108,-0.029776716604828835,0.004397814627736807
0.1670383115393439,24.652687848693105,0.6054218704688936,1.083438979675441,0.0556615479811568,0.2779260037427336,0.9606798671279462,16.81203269958496,-3.4483137130737305,8.056853317839341e-08,3.185648007418777,16.109616341649748,16.438497735651534,0.9888091683387756,0.14612072706222534,-0.029764439910650253,0.004398424178361893
0.1675384262445515,24.70652026227249,0.6106529600862081,1.0874365432933624,0.05555850221293645,0.2773304830690208,0.9612647147420743,16.820947647094727,-3.4469027519226074,2.8732006995824122e-08,3.178504702018348,16.067731790538215,16.395899908475776,0.988798201084137,0.14619769155979156,-0.02975192293524742,0.004398938734084368
0.16803854094975912,24.760901827375534,0.6158816060854919,1.0916606645089495,0.0554560683752604,0.2767322363051941,0.9618525420867553,16.82964324951172,-3.445462942123413,2.661617060084609e-08,3.1713935062612855,16.025682307938936,16.35314736195438,0.9887874126434326,0.14627279341220856,-0.02973916567862034,0.004399359226226807
0.16853865565496673,24.81583651350481,0.6211035062542162,1.0961042796286105,0.05535419129301357,0.27613132178841526,0.9624432259000125,16.83812713623047,-3.443995475769043,3.3392613119076486e-09,3.164311592906365,15.983473598123574,16.310245130604784,0.9887769818305969,0.1463460475206375,-0.02972617745399475,0.004399686586111784
0.16903877036017437,24.871328234410914,0.6263143229871493,1.1007603510541284,0.05525281489418618,0.27552779867922,0.9630366411783216,16.846397399902344,-3.442500591278076,-1.797354265420381e-08,3.1572560901136066,15.94111141460945,16.267198288298907,0.9887668490409851,0.14641746878623962,-0.029712960124015808,0.004399921279400587
0.16953888506538198,24.927380845860103,0.6315096872242251,1.1056218701921685,0.05515188226450403,0.2749217269470834,0.9636326612402198,16.854455947875977,-3.4409780502319336,-1.4827142180706687e-08,3.150224084527637,15.898601557583365,16.22401194620878,0.9887569546699524,0.1464870572090149,-0.02969951368868351,0.0044000642374157906
0.1700389997705896,24.98399814345277,0.6366852023732259,1.1106818602670079,0.055051335702581354,0.27431316735575295,0.9642311577905177,16.8622989654541,-3.439427614212036,3.645196500201564e-08,3.1432126243798946,15.855949871330084,16.180691250765822,0.988747239112854,0.14655479788780212,-0.029685836285352707,0.004400115460157394
0.1705391144757972,25.041183860493394,0.6418364482150817,1.1159333790392425,0.0549511167755673,0.2737021814483605,0.9648320009850593,16.869932174682617,-3.4378511905670166,1.1463932025890244e-08,3.136218722607624,15.813162241667895,16.137241381636265,0.9887378811836243,0.1466207355260849,-0.029671939089894295,0.004400075878947973
0.1710392291810048,25.098941665913053,0.646958984789693,1.1213695214332087,0.05485116637525672,0.2730888315323224,0.9654350594959568,16.87735939025879,-3.4362478256225586,-1.3900807616096245e-08,3.1292393599877184,15.770244593393835,16.093667549715736,0.9887288212776184,0.14668487012386322,-0.029657822102308273,0.004399946425110102
0.17153934388621245,25.157275162244677,0.6520483562602362,1.126983422075812,0.05475142477463859,0.27247318066403964,0.9660402005772637,16.88457489013672,-3.4346187114715576,6.753862180630676e-08,3.1222714882834945,15.727202887740653,16.04997499514527,0.9887200593948364,0.1467471867799759,-0.029643485322594643,0.00439972709864378
0.17203945859142006,25.21618788365216,0.6571000947540118,1.1327682577494391,0.05465183168485468,0.2718552926334121,0.9666472901310054,16.89158058166504,-3.4329631328582764,1.2100372259737924e-08,3.1153120334026383,15.684043119848347,16.00616898535194,0.9887115359306335,0.1468077003955841,-0.029628930613398552,0.004399417899549007
0.17253957329662767,25.275683294013362,0.6621097241779507,1.1387172497615567,0.05455232631254383,0.27123523194817445,0.9672561927735162,16.89837646484375,-3.4312808513641357,2.5424398142348537e-09,3.108357898564622,15.640771316252213,15.962254813116262,0.988703191280365,0.14686641097068787,-0.029614156112074852,0.004399019759148359
0.17303968800183528,25.335764785057755,0.6670727640069688,1.1448236662334998,0.05445284741754772,0.2706130638180734,0.9678667719020231,16.904970169067383,-3.4295732975006104,2.0659676636114455e-08,3.101405967475997,15.597393532390194,15.91823779466941,0.9886952042579651,0.14692334830760956,-0.02959917113184929,0.004398534074425697
0.17353980270704292,25.396435674558905,0.6719847330434304,1.1510808243108905,0.05435333337095426,0.2699888541388966,0.9684788897614175,16.911354064941406,-3.4278407096862793,3.7144900488783605e-08,3.0944531075120194,15.553915850131546,15.874123267822494,0.9886875152587891,0.146978497505188,-0.029583973810076714,0.004397960379719734
0.17403991741225053,25.457699204582106,0.6768411531460271,1.157482092298,0.054253722213457735,0.2693626694763691,0.9690924075111549,16.917531967163086,-3.4260811805725098,1.5364218342028835e-08,3.0874961729032315,15.510344375329282,15.829916590130608,0.9886799454689026,0.14703187346458435,-0.029568560421466827,0.00439729867503047
0.17454003211745814,25.519558539787365,0.6816375529264586,1.164020891718244,0.054153951714013465,0.26873457704993137,0.9697071852922251,16.923507690429688,-3.424297332763672,-3.2877139233278285e-08,3.08053200792561,15.466685235398577,15.785623137094005,0.9886727333068848,0.14708349108695984,-0.029552942141890526,0.004396550357341766
0.17504014682266575,25.582016765787913,0.6863694714123294,1.1706906993029018,0.05405395942876755,0.26810464471641826,0.9703230822941316,16.929279327392578,-3.4224889278411865,7.386798017705587e-08,3.0735574500930714,15.422944576923589,15.741248300398986,0.9886658191680908,0.14713335037231445,-0.02953711524605751,0.004395717289298773
0.17554026152787336,25.645076887564077,0.6910324616747447,1.1774850489099693,0.05395368276024215,0.2674729409536527,0.9709399568218373,16.934846878051758,-3.4206552505493164,-1.1455010273664357e-08,3.0665693333510906,15.379128563294568,15.696797486200616,0.988659143447876,0.1471814662218094,-0.02952108159661293,0.004394796676933765
0.176040376233081,25.70874182793265,0.6956220944191275,1.1843975333749206,0.053853059016758124,0.2668395348439726,0.9715576663625934,16.940216064453125,-3.4187965393066406,-4.847093393323121e-08,3.0595644912704465,15.335243372377892,15.652276113449913,0.988652765750885,0.14722785353660583,-0.029504839330911636,0.004393791314214468
0.1765404909382886,25.773014426071658,0.7001339615378112,1.1914218062950093,0.053752025472076775,0.26620449605770985,0.9721760676526244,16.94538116455078,-3.4169130325317383,3.975823403834511e-08,3.052539760239932,15.291295194220801,15.607689612267462,0.9886466264724731,0.1472724974155426,-0.029488390311598778,0.004392701201140881
0.17704060564349622,25.837897436100075,0.7045636796230064,1.1985515837485246,0.05365051942524485,0.26556789483663723,0.972795016743606,16.95034408569336,-3.415004014968872,3.346471899590142e-08,3.045491982657175,15.247290228792872,15.563043422365542,0.9886406064033508,0.14731541275978088,-0.029471734538674355,0.004391525872051716
0.17754072034870383,25.903393525712353,0.7089068934387621,1.2057806459502811,0.05354847826062525,0.2649298019774081,0.9734143690688645,16.955116271972656,-3.413071393966675,-2.5758287947041936e-08,3.038418010116668,15.203234683766993,15.518342991521434,0.9886350035667419,0.14735664427280426,-0.029454875737428665,0.004390266723930836
0.17804083505391144,25.969505274867426,0.7131592793505579,1.2131028388443723,0.0534458395080984,0.2642902888150017,0.974033979509279,16.959692001342773,-3.41111421585083,-1.541419614170536e-08,3.0313147065941015,15.159134772340813,15.47359377410311,0.9886296391487122,0.14739617705345154,-0.02943781390786171,0.004388924688100815
0.17854094975911908,26.036235174531544,0.7173165487111844,1.2205120756350665,0.053342540903418764,0.2636494272061993,0.9746537024587985,16.96407127380371,-3.409133195877075,1.7669773200168493e-08,3.0241789516263524,15.114996711101623,15.428801229649928,0.988624632358551,0.1474340260028839,-0.029420550912618637,0.004387499764561653
0.1790410644643267,26.103585625474643,0.7213744512015927,1.2280023382564684,0.05323852044871128,0.26300728951311064,0.9752733918895544,16.96824836730957,-3.407125949859619,3.153725103288707e-08,3.0170076434862794,15.070826717935955,15.38397082150978,0.9886196851730347,0.147470161318779,-0.0294030774384737,0.004385991021990776
