Time,Gyro_X,Gyro_Y,Gyro_Z,Acc_X,Acc_Y,Acc_Z,Euler_X,Euler_Y,Euler_Z,Tilt_X,Tilt_Y,Tilt_Z,Quat_W,Quat_X,Quat_Y,Quat_Z
0.0,-5.6764446393883885,-4.387536874415227,-11.891794974647325,0.025324049546261992,-0.053386778172187364,1.0123845060109113,-0.01791677437722683,-0.009347448125481606,-8.203285967178786e-11,1.4309253482788624,-3.0176800572313818,3.3403192729323097,1.0,-0.00015635335876140743,-8.157188131008297e-05,-1.2754753697663546e-08
0.0005001147052076164,-5.676767285665837,-4.387793499804803,-11.89099397967441,0.02532318008891683,-0.05338559842620414,1.0123862224059081,-0.03574059531092644,-0.018648844212293625,2.2181508019247786e-10,1.4308739098414507,-3.0176084567714607,3.3402324853630616,0.9999999403953552,-0.0003118955355603248,-0.00016274188237730414,-5.0756533198637044e-08
0.0010002294104152329,-5.677139180470057,-4.388062975949744,-11.889742464241326,0.025327946418220088,-0.05338329448661014,1.0123851427907917,-0.05347170680761337,-0.027906043455004692,1.7091049409057035e-10,1.4311448094643384,-3.0174813232021918,3.3402338585704947,0.9999998807907104,-0.00046662866952829063,-0.00024352614127565175,-1.1363480467707632e-07
0.0015003441156228492,-5.677560887875176,-4.388345815406663,-11.888039948333638,0.02533833364420278,-0.05337986333283301,1.0123812777968426,-0.07111035287380219,-0.03712087124586105,1.6019427451219315e-10,1.431737194572798,-3.01729845416466,3.34032292829516,0.9999997615814209,-0.0006205548415891826,-0.0003239406505599618,-2.0102159226098593e-07
0.0020004588208304658,-5.6780328181838655,-4.388642355623265,-11.885886679274474,0.02535432438644759,-0.05337530162547148,1.012374639034623,-0.08865676075220108,-0.046295154839754105,2.017088024386382e-10,1.432650075675111,-3.01705962541585,3.3404992401145814,0.9999996423721313,-0.0007736761472187936,-0.0004040013300254941,-3.1256453780770244e-07
0.0025005735260380823,-5.678555228993438,-4.388952760438927,-11.883283628307547,0.025375898766464577,-0.05336960570272376,1.012365239102311,-0.10611119121313095,-0.05543069913983345,1.3175516233587814e-10,1.433882325853571,-3.0167645906069285,3.3407623481110984,0.999999463558197,-0.0009259945945814252,-0.00048372388118878007,-4.479247763811145e-07
0.0030006882312456984,-5.679128226522475,-4.389277021912034,-11.880232486112535,0.025403034401653642,-0.05336277157712283,1.012353091593754,-0.12347384542226791,-0.06452928483486176,1.800080223768319e-10,1.4354326803355884,-3.016413081080161,3.3411118133977373,0.9999992847442627,-0.0010775122791528702,-0.0005631239037029445,-6.067717777114012e-07
0.003500802936453315,-5.679751767194472,-4.3896149624699925,-11.876735657262627,0.025435706400872546,-0.05335479493258309,1.0123382111061996,-0.14074499905109406,-0.07359269261360168,6.996225820898871e-10,1.4372997361460742,-3.0160048056848785,3.3415472025049087,0.9999991059303284,-0.0012282312382012606,-0.0006422168808057904,-7.88785428085248e-07
0.0040009176416609315,-5.680425659474412,-4.389966237376903,-11.872796253636544,0.02547388736162973,-0.05334567112176482,1.0123206132477127,-0.1579248309135437,-0.08262266963720322,4.937241171454332e-10,1.439481951842202,-3.0155394506128217,3.342068085631171,0.9999988675117493,-0.0013781534507870674,-0.000721018121112138,-9.936704827850917e-07
0.004501032346868548,-5.681149565953713,-4.390330337513608,-11.868418086798238,0.02551754736892047,-0.05333539516376255,1.0123003146442515,-0.17501357197761536,-0.09162094444036484,-5.2037710945862514e-11,1.4419776473317234,-3.0150166792533004,3.3426740347619033,0.9999985098838806,-0.0015272805467247963,-0.0007995425839908421,-1.2211280591145623e-06
0.005001147052076165,-5.681923005678529,-4.390706592463822,-11.863605659359987,0.02556665399572588,-0.053323961742123664,1.012277332946385,-0.1920114904642105,-0.10058925300836563,1.971684898682824e-10,1.444785003776045,-3.014436132068606,3.3433646216602675,0.9999982118606567,-0.0016756150871515274,-0.000877805519849062,-1.4708650724060135e-06
0.005501261757283781,-5.68274535671595,-4.391094173899758,-11.8583641553455,0.02562117230519321,-0.05331136520320454,1.0122516868356488,-0.20891879498958588,-0.1095292866230011,2.993363334979904e-10,1.447902063579228,-3.013797426490097,3.344139415735324,0.9999979138374329,-0.0018231585854664445,-0.0009558216552250087,-1.7426154954591766e-06
0.006001376462491397,-5.683615858952048,-4.391492099259805,-11.852699429572,0.025681064854516506,-0.053297599554870775,1.0122233960305087,-0.22573566436767578,-0.11844271421432495,1.5330819946868246e-10,1.451326730464159,-3.013100156835431,3.3449979817927185,0.9999975562095642,-0.0019699130207300186,-0.0010336055420339108,-2.0361167116789147e-06
0.006501491167699013,-5.6845336171155365,-4.391899235710353,-11.846617996071153,0.0257462917005362,-0.05328265846554915,1.0121924812919125,-0.24246230721473694,-0.1273312121629715,1.554841394524331e-10,1.4550567696371253,-3.012343894247467,3.345939877673907,0.9999971985816956,-0.002115880139172077,-0.0011111716739833355,-2.351111334064626e-06
0.00700160587290663,-5.685497604020047,-4.392314304383301,-11.840127015570925,0.0258168104070757,-0.05326653526363951,1.0121589644284443,-0.2590990364551544,-0.13619635999202728,1.0849262026962903e-12,1.4590898080419636,-3.0115281866552612,3.3469646517902514,0.9999967813491821,-0.0022610619198530912,-0.001188534195534885,-2.6873581191466656e-06
0.0075017205781142465,-5.686506664017901,-4.392735884880077,-11.833234282061508,0.025892576054033452,-0.05324922293729329,1.0121228683010113,-0.2756458818912506,-0.14503982663154602,5.389716450920901e-10,1.4634233347051215,-3.010652558757757,3.348071840559002,0.9999963641166687,-0.0024054597597569227,-0.001265707309357822,-3.044614459213335e-06
0.008001835283321863,-5.687559516657719,-4.393162420032649,-11.825948208470239,0.025973541248247453,-0.053230714134568015,1.0120842168271016,-0.2921031415462494,-0.15386317670345306,-5.000941327715225e-10,1.4680547011727474,-3.0097165120306184,3.349260965748443,0.9999958276748657,-0.0025490757543593645,-0.0013427047524601221,-3.422674808462034e-06
0.008501949988529479,-5.6886547605377995,-4.393592220911278,-11.818277811471734,0.026059656136149523,-0.053211001163965,1.012043034984548,-0.30847102403640747,-0.16266797482967377,5.5625021949667897e-11,1.4729811220411189,-3.0087195247568217,3.350531531740113,0.9999953508377075,-0.002691911533474922,-0.0014195403782650828,-3.82129428544431e-06
0.009002064693737096,-5.6897908773469235,-4.3940234720684614,-11.810232695460922,0.026150868418225743,-0.05319007599535989,1.0119993488148145,-0.3247496485710144,-0.17145578563213348,1.4576745366312593e-10,1.478199675581566,-3.0076610520815064,3.3518830227163208,0.9999948740005493,-0.0028339687269181013,-0.0014962275745347142,-4.240282578393817e-06
0.009502179398944712,-5.690966236083808,-4.394454237007866,-11.801823035718005,0.026247123365298674,-0.05316793026133303,1.011953185425764,-0.34093934297561646,-0.1802280992269516,-2.4660626318784296e-10,1.4837073044611082,-3.0065405260916527,3.3533148997816324,0.9999943375587463,-0.0029752489645034075,-0.0015727793797850609,-4.679438916355139e-06
0.01000229410415233,-5.692179097446128,-4.394882463866686,-11.79305956079557,0.026348363836646918,-0.05314455525890994,1.0119045729939047,-0.357040137052536,-0.18898643553256989,2.409158809946188e-12,1.4895008165599832,-3.005357355921184,3.35482659802744,0.9999938011169434,-0.0031157538760453463,-0.0016492089489474893,-5.1385609367571305e-06
0.010502408809359945,-5.6934276183796895,-4.395305991299434,-11.78395353415929,0.026454530299976305,-0.053119941951719735,1.0118535407660822,-0.37305229902267456,-0.19773221015930176,6.879135594495267e-10,1.4955768858872458,-3.004110927882048,3.3564175235490445,0.9999932646751404,-0.0032554848585277796,-0.0017255290877074003,-5.617465831164736e-06
0.011002523514567562,-5.694709856778067,-4.3957225545506935,-11.774516735115007,0.02656556085325638,-0.05309408097258023,1.0118001190606158,-0.38897597789764404,-0.2064669132232666,6.045369760343533e-10,1.5019320535955423,-3.0028006056218297,3.358087050425002,0.9999926686286926,-0.003394443541765213,-0.0018017523689195514,-6.11598625255283e-06
0.011502638219775178,-5.696023776322698,-4.396129791704103,-11.764761439055713,0.02668139124843482,-0.05306696262651869,1.011744339267846,-0.4048112630844116,-0.21519193053245544,5.54807311203831e-10,1.5085627290961832,-3.001425730308503,3.359834517668873,0.9999920725822449,-0.003532631089910865,-0.0018778910161927342,-6.633943939959863e-06
0.012002752924982794,-5.697367251453184,-4.3965252500943395,-11.754700397063397,0.026801954917041456,-0.05303857689423706,1.0116862338500832,-0.4205584228038788,-0.22390863299369812,5.915282708102154e-10,1.5154651912755663,-2.999985620842881,3.3616592261637432,0.9999914169311523,-0.0036700491327792406,-0.001953957136720419,-7.171175184339518e-06
0.012502867630190411,-5.6987380724573935,-4.3969063928686865,-11.744346814901371,0.026927182997692638,-0.05300891343602949,1.0116258363409332,-0.4362175166606903,-0.23261843621730804,3.6444214313036127e-10,1.5226355898139863,-2.9984795740993264,3.3635604355901414,0.9999907612800598,-0.0038066988345235586,-0.002029962604865432,-7.72752446209779e-06
0.013002982335398027,-5.700133950670544,-4.3972706056843895,-11.733714331433736,0.02705700436550474,-0.05297796159616096,1.0115631813439947,-0.45178866386413574,-0.24132254719734192,-1.6522565260412847e-10,1.530069946607752,-2.996906865195238,3.3655373613581583,0.9999899864196777,-0.00394258089363575,-0.00210591871291399,-8.302839887619484e-06
0.013503097040605644,-5.701552523772528,-4.397615203527783,-11.722816996509524,0.027191345663425345,-0.05294571040771516,1.0114983045308854,-0.46727225184440613,-0.25002244114875793,1.0199825428713893e-09,1.5377641572955896,-2.995266747789951,3.367589171554906,0.99998939037323,-0.004077698569744825,-0.0021818375680595636,-8.896961844584439e-06
0.01400321174581326,-5.702991361172336,-4.3979374376409135,-11.711669248349631,0.02733013133548806,-0.0529121485979191,1.011431242638618,-0.48266804218292236,-0.25871923565864563,-5.564607663544052e-10,1.5457139928900836,-2.993558454413429,3.3697149839183127,0.9999885559082031,-0.004212050698697567,-0.0022577294148504734,-9.509784831607249e-06
0.014503326451020877,-5.704447969468431,-4.398234502541169,-11.700285890475628,0.027473283661996334,-0.0528772645939523,1.0113620334662627,-0.4979765713214874,-0.2674142122268677,-4.374179837784986e-11,1.55391510151503,-2.991781196825432,3.371913862848733,0.9999878406524658,-0.0043456400744616985,-0.0023336054291576147,-1.0141133316210471e-05
0.015003441156228493,-5.705919797973747,-4.398503543119358,-11.688682068219894,0.027620722796639182,-0.05284104652924691,1.0112907158709166,-0.5131977200508118,-0.27610865235328674,-5.6200950143692197e-11,1.5623630102493078,-2.9899341664054604,3.3741848164695227,0.9999870657920837,-0.004478467162698507,-0.002409476088359952,-1.0790899978019297e-05
0.01550355586143611,-5.707404244293938,-4.398741661801344,-11.67687324485724,0.027772366805540797,-0.0528034822502863,1.0112173297629528,-0.5283315777778625,-0.2848036587238312,-2.8763115153540575e-11,1.5710531270779253,-2.9880165345740455,3.376526793748047,0.9999862909317017,-0.004610532894730568,-0.0024853518698364496,-1.1458953849796671e-05
0.016003670566643726,-5.708898659947348,-4.398945925758488,-11.664875177398663,0.02792813170824303,-0.05276455932390733,1.0111419161005164,-0.543378472328186,-0.2935003936290741,4.601219127930989e-10,1.5799807429507498,-2.9860274532457844,3.378938681688471,0.9999855160713196,-0.004741838201880455,-0.002561242552474141,-1.214516942127375e-05
0.016503785271851344,-5.710400356015279,-4.399113374151805,-11.652703892088075,0.028087931520619187,-0.052724265045112295,1.0110645168832821,-0.5583382844924927,-0.30219995975494385,1.479931455161676e-10,1.5891410339493293,-2.983966055314476,3.3814193026075565,0.9999846816062927,-0.0048723844811320305,-0.00263715791516006,-1.2849443010054529e-05
0.017003899977058957,-5.711906608810872,-4.3992410253949705,-11.640375659643455,0.028251678299714186,-0.05268258644539616,1.0109851751454288,-0.5732111930847168,-0.3109034597873688,2.1219029311403403e-10,1.5985290635621412,-2.981831455170807,3.3839674115047833,0.9999838471412659,-0.005002172198146582,-0.002713107503950596,-1.3571648196375463e-05
0.017504014682266575,-5.713414665555215,-4.399325884421087,-11.627906970283759,0.028419282190504516,-0.05263951030159207,1.0109039349478441,-0.587997317314148,-0.3196119964122772,7.618661257424719e-10,1.6081397850684245,-2.9796227492527887,3.3865816935376865,0.999983012676239,-0.005131202284246683,-0.0027891003992408514,-1.4311674931377638e-05
0.018004129387474192,-5.714921750049043,-4.399364949938241,-11.615314508583479,0.028590651474569476,-0.052595023145241046,1.0108208413695141,-0.6026967167854309,-0.3283264636993408,3.415400740003349e-10,1.6179680440307462,-2.9773390166294127,3.389260761613505,0.9999821186065674,-0.0052594756707549095,-0.0028651454485952854,-1.5069429537106771e-05
0.01850424409268181,-5.7164250683286415,-4.399355221658979,-11.602615128196467,0.02876569262066237,-0.05254911127248717,1.0107359404981167,-0.6173095107078552,-0.3370479345321655,9.481361251673093e-10,1.628008580896205,-2.9749793196175958,3.392003154107599,0.9999812245368958,-0.005386992357671261,-0.002941251266747713,-1.584478741278872e-05
0.019004358797889424,-5.717921814294545,-4.3992937074887895,-11.589825826490783,0.028944310337167743,-0.05250176075450184,1.0106492794197846,-0.6318358182907104,-0.34577736258506775,1.2319850695163836e-09,1.6382560337061174,-2.9725427044327444,3.3948073327191457,0.9999803304672241,-0.005513754207640886,-0.003017426235601306,-1.6637663065921515e-05
0.01950447350309704,-5.719409175301724,-4.399177430658985,-11.576963719136437,0.029126407626429037,-0.05245295744843843,1.0105609062080325,-0.6462754607200623,-0.3545156419277191,5.878592057584342e-10,1.648704940913899,-2.9700282018730597,3.3976716804741756,0.9999793767929077,-0.005639760755002499,-0.0030936782713979483,-1.744795918057207e-05
0.02000458820830466,-5.7208843377001255,-4.399003436789314,-11.564046014687271,0.02931188584092731,-0.05240268700891815,1.0104708699118394,-0.6606287360191345,-0.3632636070251465,5.805281255710781e-10,1.659349744310655,-2.9674348280376828,3.4005944998856723,0.9999784231185913,-0.005765012465417385,-0.0031700150575488806,-1.8275564798386768e-05
0.020504702913512272,-5.722344492314558,-4.398768800866041,-11.551089989198656,0.029500644741290105,-0.05235093490004717,1.0103792205428745,-0.674895703792572,-0.37202224135398865,1.00699315552788e-09,1.670184792057907,-2.964761585078762,3.4035740112800896,0.9999774694442749,-0.005889510735869408,-0.0032464442774653435,-1.9120390788884833e-05
0.02100481761871989,-5.723786839853065,-4.398470634121328,-11.538112960921596,0.02969258255610556,-0.05229768640796434,1.0102860090618522,-0.6890761256217957,-0.38079214096069336,-1.4725567987206034e-10,1.6812043418266838,-2.962007461987452,3.4066083512992473,0.999976396560669,-0.006013254169374704,-0.0033229724504053593,-1.99823516595643e-05
0.021504932323927507,-5.725208596233166,-4.398106090800011,-11.52513226511415,0.02988759604351503,-0.05224292665391716,1.0101912873640209,-0.7031702995300293,-0.3895743489265442,2.7520663525848477e-10,1.6924025640420433,-2.9591714354137433,3.409695571585984,0.9999753832817078,-0.006136245094239712,-0.0033996072597801685,-2.086133463308215e-05
0.022005047029135125,-5.7266069978155265,-4.3976723748002335,-11.51216522901011,0.03008558055455371,-0.05218664060786364,1.0100951082637597,-0.7171783447265625,-0.3983694612979889,-5.075367348617021e-10,1.7037735452319578,-2.9562524705200848,3.412833637661619,0.9999743700027466,-0.00625848351046443,-0.0034763545263558626,-2.1757268768851645e-05
0.02250516173434274,-5.727979306534883,-4.397166746174646,-11.49922914698458,0.030286430098206227,-0.05212881310259574,1.0099975254782936,-0.7311001420021057,-0.40717822313308716,4.2830500257551307e-10,1.7153112914792716,-2.9532495218685453,3.416020428002557,0.9999733567237854,-0.006379968952387571,-0.003553220769390464,-2.2670037651550956e-05
0.023005276439550356,-5.729322814918336,-4.396586527479235,-11.48634125595543,0.030490037408141196,-0.052069428848380075,1.009898593610514,-0.7449356317520142,-0.4160013198852539,1.228991353130482e-10,1.7270097319753137,-2.950161534341324,3.4192537333229542,0.9999722838401794,-0.0065007018856704235,-0.0036302118096500635,-2.359957761655096e-05
0.023505391144757973,-5.7306348509812794,-4.395929109957199,-11.473518711058986,0.03069629401108534,-0.05200847244810971,1.0097983681308933,-0.7586849927902222,-0.4248393476009369,1.0102944869583297e-10,1.738862722673553,-2.946987444094328,3.42253125606973,0.9999712109565735,-0.006620682310312986,-0.0037073330022394657,-2.4545779524487443e-05
0.024005505849965587,-5.731912782991732,-4.395191959545727,-11.46077856163753,0.030905090296795504,-0.05194592841296003,1.009696905358507,-0.772348165512085,-0.43369293212890625,1.6009690795293352e-10,1.7508640500415054,-2.9437261795433773,3.4258506101355093,0.9999701380729675,-0.00673991022631526,-0.003784589935094118,-2.5508556063869037e-05
0.024505620555173205,-5.733154024093931,-4.394372622693877,-11.448137727575459,0.031116315589582676,-0.051881781178540996,1.009594262441146,-0.7859251499176025,-0.44256266951560974,9.745866613730669e-11,1.763007434908901,-2.940376662382679,3.429209320794574,0.9999690651893616,-0.0068583860993385315,-0.0038619874976575375,-2.648781992320437e-05
0.025005735260380822,-5.734356036782569,-4.393468731980254,-11.435612976019955,0.031329858221340434,-0.051816015121536274,1.0094904973345258,-0.7994158864021301,-0.45144906640052795,3.1499894359576786e-10,1.7752865364099841,-2.9369378086350175,3.432604824866142,0.9999679327011108,-0.0069761089980602264,-0.003939530346542597,-2.7483471058076248e-05
0.02550584996558844,-5.735516337219288,-4.392478011519666,-11.42322089852132,0.03154560560602592,-0.05174861457681968,1.009385668780589,-0.8128204345703125,-0.4603526294231415,4.3609213462580954e-10,1.7876949560175763,-2.9334085297331316,3.4360344711086563,0.9999668002128601,-0.007093079853802919,-0.004017222672700882,-2.8495423975982703e-05
0.026005964670796054,-5.736632499383489,-4.391398282148305,-11.410977888626839,0.0317634443155391,-0.05167956385503688,1.0092798362849071,-0.8261387348175049,-0.46927377581596375,6.751319503450759e-10,1.8002262416663692,-2.929787733631594,3.43949552084803,0.9999656677246094,-0.007209297735244036,-0.004095068667083979,-2.952357681351714e-05
0.02650607937600367,-5.737702159049811,-4.390227466377718,-11.398900119961384,0.03198326015694259,-0.051608847260640085,1.0091730600931794,-0.8393707871437073,-0.47821304202079773,8.296154874187778e-10,1.8128738919627219,-2.926074325948486,3.4429851488420993,0.9999645352363586,-0.0073247626423835754,-0.004173072054982185,-3.056784044019878e-05
0.02700619408121129,-5.738723017585155,-4.388963593108144,-11.387003524826333,0.03220493825096153,-0.05153644911036264,1.009065401166834,-0.8525165319442749,-0.4871707260608673,7.045326544385944e-10,1.8256313604780416,-2.922267211136123,3.4465004443828633,0.9999633431434631,-0.007439474109560251,-0.004251236096024513,-3.162811481161043e-05
0.027506308786418906,-5.739692845558401,-4.387604802092503,-11.375303773347913,0.03242836311169978,-0.05146235375211815,1.0089569211577423,-0.8655758500099182,-0.4961472153663635,5.212401621434992e-10,1.838492060122636,-2.9183652936799085,3.4500384126372463,0.9999621510505676,-0.007553431671112776,-0.0043295640498399734,-3.2704298064345494e-05
0.02800642349162652,-5.740609486156559,-4.38614934814284,-11.363816253204151,0.032653418727505205,-0.05138654558430862,1.008847682382043,-0.878548800945282,-0.5051428079605103,7.027160520145515e-10,1.8514493675967036,-2.9143674793244316,3.4535959762265045,0.9999609589576721,-0.007666635327041149,-0.00440805871039629,-3.379629197297618e-05
0.028506538196834137,-5.741470858401305,-4.384595605071565,-11.352556049959034,0.032879988642914554,-0.05130900907552511,1.0087377477930883,-0.891435444355011,-0.514157772064209,4.2115813614351794e-10,1.864496627914985,-2.910272676325832,3.457169977043613,0.9999597668647766,-0.007779084146022797,-0.004486722405999899,-3.490399103611708e-05
0.029006652902041755,-5.742274960160573,-4.382942069360524,-11.341537928030617,0.03310795604160468,-0.05122972878462231,1.0086271809535308,-0.9042353630065918,-0.5231924653053284,3.4548264249423255e-10,1.8776271590013225,-2.9060797967292857,3.4607571783071838,0.9999585151672363,-0.007890777662396431,-0.004565557464957237,-3.6027289752382785e-05
0.02950676760724937,-5.743019870950081,-4.381187363551493,-11.33077631231891,0.03333720383027434,-0.051148689381148756,1.0085160460065385,-0.916948676109314,-0.532247006893158,1.0848230092008748e-09,1.8908342563492866,-2.9017877576705873,3.464354266849887,0.999957263469696,-0.008001715876162052,-0.004644566215574741,-3.716607898240909e-05
0.030006882312456986,-5.743703754520323,-4.379330239352292,-11.32028527051775,0.033567614723377964,-0.051065875666111954,1.0084044076461807,-0.9295755624771118,-0.5413215756416321,5.607972419774399e-10,1.9041111977447323,-2.897395482700499,3.4679578556384216,0.9999560117721558,-0.008111897855997086,-0.004723749123513699,-3.832024958683178e-05
0.030506997017664603,-5.744324861224848,-4.377369580453415,-11.310078496133535,0.03379907132863009,-0.0509812725930576,1.0082923310869698,-0.9421156048774719,-0.5504164099693298,4.4698098000672815e-10,1.9174512480460681,-2.8929019031306957,3.4715644865215856,0.9999547600746155,-0.008221321739256382,-0.004803108051419258,-3.948967787437141e-05
0.03100711172287222,-5.744881530166371,-4.375304405050675,-11.300169292232198,0.03403145623319633,-0.0508948652894404,1.00817988203259,-0.95456862449646,-0.5595313906669617,5.4327306542312215e-11,1.9308476640177648,-2.8883059593998723,3.4751706332021475,0.9999533891677856,-0.008329987525939941,-0.004882643930613995,-4.067425834364258e-05
0.031507226428079835,-5.745372191117418,-4.3731338680699965,-11.290570555934439,0.03426465209048455,-0.05080663907826329,1.0080671266438237,-0.9669349789619446,-0.5686668157577515,2.473694582505459e-10,1.9442936992124988,-2.883606602458644,3.47877270442761,0.9999520778656006,-0.008437896147370338,-0.004962357692420483,-4.1873863665387034e-05
0.03200734113328745,-5.74579536621306,-4.370857263091192,-11.281294763677575,0.03449854170744701,-0.050716579499960925,1.007954131505694,-0.9792144894599915,-0.5778228640556335,1.1301499736049436e-09,1.9577826088971186,-2.8788027951717385,3.4823670473943045,0.9999508857727051,-0.008545045740902424,-0.0050422498025000095,-4.3088362872367725e-05
0.03250745583849507,-5.746149671413446,-4.3684740239682,-11.272353957260938,0.034733008132302685,-0.05062467233450188,1.0078409635938388,-0.9914066195487976,-0.5869989991188049,-1.1128151178319001e-10,1.9713076550175148,-2.873893513735929,3.485949951358585,0.9999494552612305,-0.008651433512568474,-0.005122319329530001,-4.4317646825220436e-05
0.03300757054370269,-5.746433817734523,-4.365983726143882,-11.263759730690147,0.03496793474258562,-0.05053090362368395,1.0077276902401455,-1.003511667251587,-0.5961958169937134,5.995533514102647e-10,1.984862111197226,-2.8688777491121082,3.489517651448299,0.9999481439590454,-0.008757061325013638,-0.005202567204833031,-4.556155909085646e-05
0.033507685248910304,-5.7466466122458515,-4.363386087658209,-11.255523217834185,0.03520320533342425,-0.050435259693594935,1.0076143790976542,-1.0155295133590698,-0.6054129600524902,5.219024101776881e-10,1.9984392677645495,-2.863754508469824,3.493066332667142,0.9999468326568604,-0.008861926384270191,-0.005282992497086525,-4.6819975977996364e-05
0.034007799954117915,-5.746786958834756,-4.360680969849341,-11.24765508090724,0.03543870420595391,-0.05033772717721147,1.0075010981047618,-1.027459740638733,-0.6146503686904907,-1.0015620277581405e-11,2.0120324368027145,-2.858522816642553,3.496592134083894,0.9999454617500305,-0.008966028690338135,-0.005363594740629196,-4.8092766519403085e-05
0.03450791465932553,-5.746853858736684,-4.357868377747627,-11.24016549978614,0.035674316255763484,-0.05023829303710712,1.0073879154487515,-1.0393025875091553,-0.6239078640937805,3.6593550412078457e-10,2.0256349572175667,-2.853181717591913,3.500091153198061,0.9999440908432007,-0.009069366380572319,-0.005444372538477182,-4.9379767006030306e-05
0.03500802936453315,-5.746846410832072,-4.354948460163435,-11.233064162172246,0.03590992706127465,-0.05013694458823994,1.0072748995286605,-1.0510575771331787,-0.6331854462623596,-1.2078022609829375e-11,2.039240199817072,-2.8477302758789977,3.5035594504729097,0.9999427199363708,-0.00917193852365017,-0.005525324493646622,-5.068083919468336e-05
0.03550814406974077,-5.746763811710587,-4.351921509470206,-11.226360254605147,0.036145422971952106,-0.05003366952078965,1.0071621189175326,-1.0627247095108032,-0.6424826979637146,5.290785587419577e-10,2.052841572396808,-2.8421675781408853,3.5069930540264043,0.999941349029541,-0.009273744188249111,-0.005606448743492365,-5.1995815738337114e-05
0.036008258774948385,-5.74660535550392,-4.348787961084841,-11.220062454334062,0.0363806911962402,-0.04992845592301325,1.0070496423240662,-1.0743039846420288,-0.6517994999885559,-6.117003570338397e-10,2.0664325248255344,-2.8364927345704363,3.51038796447016,0.9999398589134216,-0.00937478244304657,-0.005687743425369263,-5.332456930773333e-05
0.036508373480156,-5.746370433489007,-4.345548392648163,-11.214178922050891,0.036615619889121265,-0.04982129230408774,1.006937538553686,-1.0857954025268555,-0.6611358523368835,1.4291496874818677e-09,2.0800065541247847,-2.8307048803973793,3.5137401598861393,0.9999385476112366,-0.009475053288042545,-0.0057692076079547405,-5.46668961760588e-05
0.03700848818536362,-5.7460585334637955,-4.342203522908838,-11.20871729548775,0.0368500982391901,-0.049712167616907735,1.0068258764690914,-1.0971986055374146,-0.6704912185668945,9.833325265162784e-10,2.0935572095363453,-2.8248031773686004,3.5170456009303344,0.999937117099762,-0.009574553929269314,-0.0058508375659585,-5.602267265203409e-05
0.03750860289057123,-5.745669238898285,-4.338754210314694,-11.203684683879768,0.03708401655513706,-0.049601071280806465,1.0067147249502781,-1.1085132360458374,-0.6798652410507202,1.4965720884774214e-09,2.1070780975714163,-2.8187868152257085,3.5203002360525897,0.9999356865882874,-0.009673282504081726,-0.005932630971074104,-5.7391695008846e-05
0.03800871759577885,-5.745202227863914,-4.335201451316057,-11.199087663292737,0.03731726635153289,-0.04948799320416601,1.0066041528540977,-1.1197396516799927,-0.6892577409744263,1.3064802573126144e-09,2.120562887035117,-2.8126550131776358,3.5235000068211373,0.9999342560768127,-0.009771239012479782,-0.006014584563672543,-5.8773795899469405e-05
0.038508832300986465,-5.744657271744855,-4.331546378386295,-11.194932272813434,0.03754974043380735,-0.049372923806885086,1.0064942289733632,-1.130876898765564,-0.6986680626869202,-4.275481635396261e-10,2.1340053140200177,-2.8064070213662964,3.5266408533404525,0.9999327063560486,-0.009868419729173183,-0.0060966950841248035,-6.016879706294276e-05
0.03900894700619408,-5.744034233735176,-4.327790257765273,-11.191224011599006,0.03778133298231315,-0.04925585404267,1.0063850219955544,-1.1419254541397095,-0.7080963253974915,-3.225693878672331e-10,2.1473991868622253,-2.80004212232305,3.5297187197505657,0.999931275844574,-0.009964825585484505,-0.006178960204124451,-6.157649477245286e-05
0.0395090617114017,-5.743333067126237,-4.323934486932091,-11.187967836780208,0.03801193963536732,-0.04913677542111612,1.0062766004611439,-1.1528853178024292,-0.7175417542457581,-5.885451154208354e-11,2.160738391053593,-2.7935596324139036,3.5327295597959956,0.9999297857284546,-0.010060455650091171,-0.006261375732719898,-6.299671804299578e-05
0.04000917641660932,-5.742553813389135,-4.3199805918139305,-11.185168162211964,0.03824145757116174,-0.04901568002954568,1.0061690327215898,-1.163756012916565,-0.7270042896270752,7.447749639233336e-10,2.1740168941035307,-2.7869589032712225,3.535669342452186,0.9999284148216248,-0.010155308060348034,-0.006343938875943422,-6.442925950977951e-05
0.040509291121816934,-5.741696600057289,-4.315930223738413,-11.182828858063013,0.03846978558843517,-0.04889256055456841,1.0060623868970262,-1.1745370626449585,-0.7364826798439026,-2.6946650466541655e-10,2.187228750343925,-2.7802393232097797,3.5385340575972837,0.9999268054962158,-0.010249379090964794,-0.006426642183214426,-6.587391544599086e-05
0.041009405827024545,-5.740761638414742,-4.311785156137339,-11.18095325123525,0.03869682418579939,-0.04876741030333181,1.0059567308336925,-1.185228943824768,-0.7459770441055298,9.910190723605439e-11,2.2003681056706093,-2.7734003186249905,3.541319721717027,0.9999253153800964,-0.010342670604586601,-0.0065094842575490475,-6.733048212481663e-05
0.04150952053223216,-5.739749220996048,-4.307547281010233,-11.179544126601725,0.03892247563961301,-0.04864022322442692,1.0058521320611382,-1.195831060409546,-0.755486786365509,-6.003894048589586e-10,2.2134292022148863,-2.7664413553710943,3.544022383630439,0.999923825263977,-0.010435179807245731,-0.006592459976673126,-6.8798748543486e-05
0.04200963523743978,-5.738659718903913,-4.303218605156512,-11.17860372905095,0.03914664408029804,-0.04851099392841686,1.0057486577492434,-1.2063435316085815,-0.7650113701820374,1.375516645030217e-10,2.226406382938629,-2.7593619401171403,3.5466381302240877,0.9999223351478577,-0.01052690576761961,-0.006675564218312502,-7.027848914731294e-05
0.0425097499426474,-5.737493578951201,-4.298801246185604,-11.17813376632402,0.03936923556699347,-0.0483797177079549,1.005646374665098,-1.2167662382125854,-0.7745501399040222,6.491540638364768e-10,2.239294096146404,-2.7521616216785825,3.549163092182604,0.9999208450317383,-0.010617845691740513,-0.0067587923258543015,-7.176948565756902e-05
0.043009864647855015,-5.736251320634079,-4.294297428314738,-11.178135412629457,0.03959015816044469,-0.048246390557459155,1.0055453491297712,-1.2270983457565308,-0.7841024994850159,6.048965217608782e-10,2.2520868999083152,-2.744839992322329,3.5515934497033523,0.9999192953109741,-0.010707998648285866,-0.0068421391770243645,-7.327152707148343e-05
0.04350997935306263,-5.734933532943438,-4.289709477964489,-11.178609313019667,0.03980932199402577,-0.04811100919231175,1.0054456469750284,-1.2373403310775757,-0.7936678528785706,3.6204145237306307e-10,2.264779466387079,-2.7373966890430728,3.5539254381830676,0.99991774559021,-0.010797363705933094,-0.006925599183887243,-7.478435873053968e-05
0.04401009405827025,-5.733540871021999,-4.285039819162617,-11.179555588511695,0.040026639342795815,-0.04797357106755045,1.005347333500012,-1.2474919557571411,-0.803245484828949,7.579455951756131e-10,2.277366586063133,-2.7298313948088406,3.5561553538646113,0.9999161958694458,-0.010885939002037048,-0.00700916675850749,-7.63077478040941e-05
0.04451020876347786,-5.732074052674719,-4.280290968766961,-11.180973841933653,0.0402420246904914,-0.04783407439602103,1.0052504734279644,-1.2575528621673584,-0.8128348588943481,1.2826678608135467e-10,2.289843171851475,-2.7221438397735436,3.558279559431887,0.9999146461486816,-0.01097372267395258,-0.0070928363129496574,-7.784146146150306e-05
0.04501032346868548,-5.73053385474041,-4.275465531518584,-11.182863164477448,0.04045539479435964,-0.047692518165959985,1.0051551308629907,-1.2675228118896484,-0.8224353790283203,1.4358819688808921e-10,2.302204263104203,-2.7143338024546013,3.5602944895414583,0.9999130964279175,-0.011060713790357113,-0.007176602259278297,-7.938523776829243e-05
0.045510438173893095,-5.72892110933258,-4.2705661949365705,-11.185222142936812,0.04066666874773835,-0.04754890215797698,1.0050613692469512,-1.2774020433425903,-0.8320462107658386,8.068420931373055e-10,2.3144450294926373,-2.706401110873456,3.562196656279266,0.9999115467071533,-0.011146911419928074,-0.007260458078235388,-8.093883661786094e-05
0.04601055287910071,-5.727236699957835,-4.26559572406615,-11.188048867609435,0.04087576804029356,-0.047403226961408126,1.0049692513164863,-1.2871900796890259,-0.8416666388511658,1.2866366860819767e-09,2.326560774763262,-2.6983456436571225,3.5639826545314452,0.9999099969863892,-0.011232312768697739,-0.007344397716224194,-8.250198879977688e-05
0.04651066758430833,-5.725481557520285,-4.260556956092121,-11.191340940840163,0.04108261661582509,-0.04725549399001087,1.0048788390602437,-1.2968868017196655,-0.851296067237854,1.5854652035685035e-09,2.338546940361605,-2.690167331098717,3.565649167258155,0.999908447265625,-0.011316917836666107,-0.00742841511964798,-8.407444693148136e-05
0.04701078228951595,-5.723656656220475,-4.255452794829645,-11.195095486182275,0.04128714092755675,-0.04710570549697338,1.0047901936763386,-1.3064918518066406,-0.8609334230422974,3.741422449632381e-10,2.350399108918555,-2.681866156175126,3.567192970659901,0.9999067783355713,-0.011400723829865456,-0.007512502837926149,-8.565594907850027e-05
0.047510896994723564,-5.721763009357672,-4.2502862051047545,-11.199309158152108,0.04148926999082825,-0.04695386458921098,1.0047033755300967,-1.3160054683685303,-0.8705785274505615,1.4105672185849016e-09,2.3621130075936025,-2.673442155519939,3.568610939225927,0.9999052882194519,-0.011483730748295784,-0.007596656680107117,-8.724621147848666e-05
0.048011011699931175,-5.7198016650442804,-4.245060207037004,-11.203978152552265,0.04168893543311087,-0.046799975240924746,1.0046184441121133,-1.3254274129867554,-0.8802300691604614,9.621191621178582e-10,2.373684511269791,-2.6648954203499113,3.569900050654747,0.999903678894043,-0.011565935797989368,-0.007680866867303848,-8.88449649210088e-05
0.04851112640513879,-5.717773701841317,-4.239777870236852,-11.20909821733756,0.04188607154127212,-0.04664404230639683,1.004535457996692,-1.334756851196289,-0.8898873925209045,3.615761856590183e-10,2.3851096455952523,-2.6562260973431657,3.57105739063707,0.999902069568634,-0.01164733711630106,-0.007765127811580896,-9.045191836776212e-05
0.04901124111034641,-5.71568022432402,-4.234442307930384,-11.214664663997143,0.042080615306017796,-0.046486071531999726,1.0044544748006803,-1.3439944982528687,-0.8995498418807983,1.2780521085886676e-09,2.396384589866507,-2.6474343894675747,3.5720801574919108,0.9999004602432251,-0.011727934703230858,-0.007849433459341526,-9.206679533235729e-05
0.04951135581555403,-5.713522358586545,-4.229056671024104,-11.220672379425952,0.0422725064634447,-0.046326069567396905,1.004375551142768,-1.3531397581100464,-0.909216582775116,1.2110491498518172e-09,2.4075056797488226,-2.6385205567576784,3.572965666646908,0.9998988509178162,-0.011807726696133614,-0.007933774963021278,-9.368931205244735e-05
0.050011470520761644,-5.711301247694944,-4.223624142122596,-11.22711583825786,0.04246168753363992,-0.046164043975914226,1.0042987426032817,-1.3621927499771118,-0.918886661529541,9.953152746433602e-10,2.4184694098292017,-2.6294849170386922,3.573711354954345,0.9998972415924072,-0.011886712163686752,-0.008018146269023418,-9.531918476568535e-05
0.05051158522596926,-5.70901804709746,-4.218147929511691,-11.233989115632417,0.04264810385626794,-0.046000003244061935,1.0042241036845099,-1.3711529970169067,-0.9285593628883362,1.4649629287433186e-09,2.429272435997806,-2.6203278465961697,3.5743147848347694,0.9998956322669983,-0.01196488831192255,-0.00810253992676735,-9.695609332993627e-05
0.05101169993117688,-5.706673920001293,-4.212631261119995,-11.241285900366899,0.04283170362309005,-0.04583395679018936,1.0041516877716261,-1.3800203800201416,-0.9382336735725403,1.1899582708085887e-10,2.439911577653787,-2.611049780789958,3.57477364824044,0.9998940229415894,-0.012042255140841007,-0.008186948485672474,-9.859976853476837e-05
0.0515118146363845,-5.704270032724851,-4.207077378471349,-11.248999508504808,0.04301243790736532,-0.04566591497225509,1.0040815470942202,-1.3887951374053955,-0.9479089975357056,1.9602806045071475e-09,2.450383819731858,-2.60165121461126,3.575085770431394,0.9998924136161804,-0.012118811719119549,-0.008271364495158195,-0.00010024987568613142
0.05201192934159211,-5.701807550034571,-4.201489530640921,-11.257122897211712,0.04319026069008676,-0.04549588909469699,1.0040137326885061,-1.3974766731262207,-0.9575843811035156,1.1519665221726427e-09,2.460686314546095,-2.5921327031815706,3.575249113557207,0.9998908042907715,-0.012194556184113026,-0.008355780504643917,-0.00010190615284955129
0.052512044046799725,-5.699287630475198,-4.19587096822735,-11.265648678989274,0.04336512888301105,-0.04532389141438783,1.0039482943602285,-1.4060649871826172,-0.9672586917877197,-6.390407092382588e-10,2.470816383447805,-2.5824948621924615,3.5752617800380992,0.9998891949653625,-0.012269486673176289,-0.008440189063549042,-0.00010356826533097774
0.05301215875200734,-5.696711421702466,-4.190224937353347,-11.274569136177881,0.043537002348444494,-0.045149935145664045,1.0038852806483236,-1.4145597219467163,-0.9769313931465149,1.3593820513690957e-09,2.4807715182945027,-2.572738368285214,3.575122015739364,0.9998874664306641,-0.012343601323664188,-0.008524581789970398,-0.0001052358711604029
0.05351227345721496,-5.694080055826875,-4.184554673706974,-11.283876235718408,0.04370584391575281,-0.04497403446441621,1.0038247387893673,-1.4229614734649658,-0.9866014719009399,1.2494538736973482e-10,2.4905493827273686,-2.5628639593694147,3.5748282129336313,0.9998858571052551,-0.012416902929544449,-0.008608952164649963,-0.00010690872295526788
0.05401238816242258,-5.691394644777286,-4.178863396635609,-11.293561644143498,0.04387161939456768,-0.044796204511231646,1.0037667146828357,-1.431269645690918,-0.996268093585968,-4.275424736466249e-10,2.500147813254908,-2.5528724348797875,3.5743789130459986,0.9998842477798462,-0.012489387765526772,-0.008693291805684566,-0.00010858646419364959
0.054512502867630194,-5.68865627569279,-4.173154303304411,-11.303616742768801,0.04403429758466651,-0.04461646139358062,1.0037112528572472,-1.4394841194152832,-1.0059303045272827,1.3679116728226859e-09,2.509564820140627,-2.5427646559704686,3.573772809177248,0.9998826384544373,-0.012561054900288582,-0.00877759326249361,-0.00011026876018149778
0.05501261757283781,-5.685866006351239,-4.167430562930919,-11.314032643054626,0.04419385028250893,-0.04443482218704068,1.003658396437199,-1.4476048946380615,-1.015587329864502,5.068125363827392e-10,2.51879858809311,-2.5325415456462723,3.573008748401234,0.9998810291290283,-0.01263190433382988,-0.008861849084496498,-0.00011195534170838073
0.05551273227804542,-5.683024860642613,-4.161695311107023,-11.324800202108815,0.04435025228441641,-0.044251304935552564,1.003608187111337,-1.4556314945220947,-1.025238275527954,2.0686680146653202e-10,2.527847476757006,-2.5222040888303785,3.572085733832657,0.9998793005943298,-0.012701932340860367,-0.008946049958467484,-0.0001136458377004601
0.05601284698325304,-5.6801338240952655,-4.1559516442194635,-11.33591003830139,0.044503481386387995,-0.04406592865070594,1.0035606651013116,-1.463564395904541,-1.0348820686340332,1.5531096408949452e-09,2.536710021003787,-2.511753332368131,3.5710029264620493,0.9998776912689209,-0.012771141715347767,-0.009030190296471119,-0.0001153399352915585
0.05651296168846066,-5.677193839462758,-4.150202613979528,-11.347352546962378,0.04465351838054919,-0.04387871331005214,1.0035158691317296,-1.4714032411575317,-1.044517993927002,1.0694044538794856e-09,2.5453849310215015,-2.5011903849666735,3.569759646755282,0.999876081943512,-0.012839529663324356,-0.009114261716604233,-0.00011703732889145613
0.057013076393668274,-5.674205802379017,-4.1444512220724326,-11.359117916133943,0.044800347048237425,-0.04368967985444405,1.00347383640116,-1.4791479110717773,-1.0541449785232544,3.975761109220599e-10,2.55387109220304,-2.4905164170702414,3.5683553760152806,0.9998744130134583,-0.012907096184790134,-0.009198254905641079,-0.0001187376692541875
0.05751319109887589,-5.671170557089048,-4.138700414936489,-11.37119614234871,0.044943954149730916,-0.04349885018440498,1.0034346025542062,-1.486798644065857,-1.0637627840042114,2.938515653028162e-09,2.5621675648327242,-2.4797326606711256,3.566789757504176,0.9998728632926941,-0.012973842211067677,-0.009282165206968784,-0.00012044063623761758
0.05801330580408351,-5.6680888922623796,-4.132953078681776,-11.383577046406302,0.045084329410634526,-0.043306247155528735,1.003398201654695,-1.4943546056747437,-1.0733693838119507,1.949708172688247e-09,2.5702735835714035,-2.468840409056291,3.5650625973244887,0.9998711943626404,-0.01303976308554411,-0.009365981444716454,-0.00012214589514769614
0.05851342050929113,-5.664961536896184,-4.127212034157733,-11.3962502891208,0.045221465504940536,-0.04311189457291642,1.00336466615999,-1.5018165111541748,-1.0829646587371826,-8.589944311410136e-10,2.5781885567405722,-2.4578410164899163,3.563173865058553,0.9998695254325867,-0.013104860670864582,-0.009449697099626064,-0.00012385312584228814
0.05901353521449874,-5.6617891563145255,-4.121480032178637,-11.40920538701206,0.04535535803478739,-0.04291581718465527,1.0033340268964892,-1.5091838836669922,-1.0925475358963013,-5.124614066431832e-10,2.585912065406272,-2.446735897832014,3.561123694165571,0.9998679161071777,-0.01316913403570652,-0.00953330472111702,-0.00012556195724755526
0.059513649919706355,-5.658572348270315,-4.115759748915538,-11.4224317279147,0.045486005506944614,-0.04271804067434799,1.003306313036306,-1.5164564847946167,-1.1021171808242798,-1.1126829457808185e-09,2.5934438622639773,-2.435526528093639,3.5589123821364286,0.9998661875724792,-0.013232581317424774,-0.009616795927286148,-0.00012727206922136247
0.06001376462491397,-5.655311639155845,-4.110053781462822,-11.43591858647886,0.04561340930605737,-0.042518591652701415,1.0032815520751748,-1.523634910583496,-1.1116727590560913,5.532184710332899e-10,2.60078387032592,-2.4242144419290943,3.5565403904066333,0.9998645782470703,-0.013295206241309643,-0.009700165130198002,-0.00012898315617349
0.06051387933012159,-5.652007480327783,-4.104364643587121,-11.449655139537644,0.045737573664688835,-0.042317497648185376,1.0032597698116121,-1.5307189226150513,-1.121213436126709,1.1925622711572714e-09,2.6079321814126373,-2.412801233065756,3.5540083440282104,0.9998629689216614,-0.013357006013393402,-0.00978340394794941,-0.00013069488340988755
0.06101399403532921,-5.648660244552117,-4.098694761665834,-11.463630481316882,0.0458585056302035,-0.04211478709677416,1.0032409903273405,-1.5377084016799927,-1.1307382583618164,2.4679944754524286e-09,2.614889054450883,-2.401288553672236,3.5513170311018816,0.9998613595962524,-0.013417980633676052,-0.0098665039986372,-0.00013240690168458968
0.061514108740536824,-5.645270222574198,-4.093046470822104,-11.477833638463292,0.04597621502854001,-0.04191048933078406,1.00322523596902,-1.5446032285690308,-1.1402463912963867,2.7066795471597516e-09,2.621654913580341,-2.389678113665649,3.5484674019711564,0.9998597502708435,-0.013478130102157593,-0.00994945876300335,-0.00013411889085546136
0.06201422344574444,-5.641837619818788,-4.087422011262541,-11.492253584868344,0.04609071442492629,-0.04170463456682244,1.0032125273312904,-1.5514031648635864,-1.1497368812561035,-1.2443314156840302e-09,2.6282303460719225,-2.377971679958933,3.5454605681804874,0.999858021736145,-0.013537452556192875,-0.010032259859144688,-0.00013583053078036755
0.06251433815095206,-5.638362553224606,-4.081823524823606,-11.50687925626543,0.04620201908159511,-0.04149725389286416,1.0032028832411555,-1.558108925819397,-1.159209132194519,2.6331245517319246e-10,2.634616100060715,-2.36617107564918,3.542297801199941,0.9998564124107361,-0.013595951721072197,-0.010114901699125767,-0.00013754145766142756
0.06301445285615967,-5.634845048217665,-4.076253051731991,-11.52169956457921,0.046310146912562675,-0.04128837925447414,1.0031963207437251,-1.5647201538085938,-1.168662428855896,2.3851873809377366e-09,2.640813082097009,-2.3542781791481113,3.538980530919297,0.9998548030853271,-0.01365362573415041,-0.01019737683236599,-0.00013925136590842158
0.0635145675613673,-5.631285035827311,-4.070712527583918,-11.53670341200652,0.04641511843553702,-0.04107804344019412,1.0031928550893356,-1.5712368488311768,-1.1780956983566284,1.1171147340505172e-10,2.6468223545190455,-2.342294923255861,3.5355103439147717,0.9998531937599182,-0.013710473664104939,-0.010279676876962185,-0.00014095993537921458
0.0640146822665749,-5.627682349948469,-4.065203780547734,-11.55187970480923,0.046516956721028055,-0.04086628006611434,1.003192499722058,-1.577659010887146,-1.187508225440979,1.0769782288200247e-10,2.652645132651543,-2.3302232941793535,3.5318889814920467,0.9998515844345093,-0.013766497373580933,-0.010361796244978905,-0.0001426668168278411
0.06451479697178251,-5.624036724753459,-4.0597285287936655,-11.567217366800454,0.04661568733873394,-0.040653123559651685,1.0031952662696253,-1.5839866399765015,-1.196899175643921,6.988399303686776e-10,2.6582827818341603,-2.3180653304966277,3.528118337509442,0.9998499751091003,-0.013821696862578392,-0.010443727485835552,-0.0001443716901121661
0.06501491167699014,-5.620347792256266,-4.0542883781542205,-11.582705352506192,0.046711338301284336,-0.04043860914255632,1.0032011645347643,-1.5902199745178223,-1.2062677145004272,1.8784684918671246e-09,2.6637368142845688,-2.3058231220685856,3.5242004559856595,0.9998483657836914,-0.013876073062419891,-0.01052546314895153,-0.00014607423509005457
0.06551502638219775,-5.616615080031895,-4.048884820018009,-11.59833265998568,0.0468039400054234,-0.040222772813170916,1.0032102024879825,-1.5963590145111084,-1.2156132459640503,3.041300544737169e-10,2.669008885800806,-2.2934988088996335,3.5201375284965617,0.9998467564582825,-0.01392962597310543,-0.010606997646391392,-0.0001477741461712867
0.06601514108740537,-5.612838009093081,-4.043519229459507,-11.614088343294414,0.04689352517072008,-0.0400056513279668,1.003222386261783,-1.6024037599563599,-1.224934697151184,9.721210503244038e-10,2.674100792308088,-2.281094579948887,3.515931891366032,0.9998451471328735,-0.013982356525957584,-0.01068832352757454,-0.00014947108866181225
0.06651525579261298,-5.609015891926367,-4.038192863606521,-11.629961524575169,0.04698012877589664,-0.03978728218238288,1.0032377201463458,-1.6083544492721558,-1.23423171043396,2.2071675598311913e-09,2.6790144662553255,-2.2686126718935746,3.5115860226560542,0.9998435378074646,-0.014034264720976353,-0.010769435204565525,-0.00015116474241949618
0.06701537049782061,-5.6051479306891405,-4.032906860246854,-11.645941405762857,0.047063787992869595,-0.039567703590993465,1.0032562065866677,-1.6142107248306274,-1.2435035705566406,6.666072138727941e-10,2.6837519728669097,-2.2560553678463884,3.50710253896155,0.9998419284820557,-0.014085352420806885,-0.010850326158106327,-0.00015285483095794916
0.06751548520302822,-5.601233215568998,-4.027662236675011,-11.662017279890467,0.047144542118601224,-0.03934695446703254,1.0032778461811767,-1.6199735403060913,-1.2527492046356201,-3.2210345501937354e-10,2.6883155062555755,-2.2434249960286032,3.502484192015758,0.9998403191566467,-0.014135620556771755,-0.010930989868938923,-0.00015454100503120571
0.06801559990823583,-5.597270723306458,-4.022459888779335,-11.678178541984211,0.0472224325048616,-0.03912507440130249,1.0033026376818153,-1.6256422996520996,-1.2619682550430298,9.011567603245396e-10,2.692707385402288,-2.2307239284008453,3.4977338651121728,0.9998387098312378,-0.014185069128870964,-0.011011420749127865,-0.00015622295904904604
0.06851571461344345,-5.593259315881673,-4.017300590369569,-11.694414699536797,0.047297502486005366,-0.03890210364049601,1.003330577995613,-1.6312175989151,-1.2711602449417114,2.1714032794051263e-09,2.6969300500093665,-2.217954579253401,3.4928545693493276,0.9998372197151184,-0.01423370186239481,-0.01109161414206028,-0.0001579004165250808
0.06901582931865106,-5.589197739365625,-4.012184992744169,-11.710715382549218,0.04736979730486936,-0.03867808306496029,1.003361662187737,-1.6366990804672241,-1.2803237438201904,1.0061015388862504e-11,2.7009860562332286,-2.2051194037580633,3.4878494397049202,0.9998356699943542,-0.014281515963375568,-0.011171560734510422,-0.00015957304276525974
0.06951594402385869,-5.585084622935808,-4.0071136244964185,-11.727070353132033,0.04743936403689984,-0.038453054165934135,1.0033958834860253,-1.6420871019363403,-1.2894588708877563,1.3478031191116457e-11,2.7048780723033206,-2.1922208964835694,3.482721730946055,0.9998341202735901,-0.014328514225780964,-0.011251257732510567,-0.0001612405467312783
0.0700160587290663,-5.580918478056262,-4.0020868915578145,-11.743469514658427,0.047506251512620404,-0.0382270590222874,1.0034332332870102,-1.6473816633224487,-1.2985645532608032,2.1736419331119805e-09,2.708608874033915,-2.1792615898766243,3.4774748133824387,0.9998325705528259,-0.014374698512256145,-0.011330699548125267,-0.00016290265193674713
0.07051617343427392,-5.576697697821403,-3.997105077476738,-11.759902920462219,0.04757051023855426,-0.03800014027679432,1.0034737011634154,-1.652583360671997,-1.307640552520752,1.4784612423213161e-09,2.712181340235737,-2.166244052710686,3.4721121684697698,0.9998310208320618,-0.014420070685446262,-0.011409880593419075,-0.0001645590818952769
0.07101628813948153,-5.572420556462909,-3.9921683439300333,-11.776360782075058,0.04763219231671588,-0.03777234111197103,1.003517274873143,-1.6576915979385376,-1.316685438156128,1.8576744587051053e-09,2.715598448034353,-2.15317088850456,3.4666373842704985,0.9998293519020081,-0.014464630745351315,-0.011488794349133968,-0.0001662095164647326
0.07151640284468914,-5.568085209018594,-3.987276731464647,-11.792833476998071,0.04769135136278911,-0.0375437052255089,1.0035639403697298,-1.662707805633545,-1.3256995677947998,4.514728590976347e-10,2.7188632681025244,-2.140044733913006,3.461054150779498,0.9998278021812439,-0.0145083824172616,-0.011567437089979649,-0.0001678537082625553
0.07201651754989677,-5.563689691161914,-3.9824301604660257,-11.809311556004102,0.04774804242311052,-0.037314276805335285,1.0036136818142796,-1.6676315069198608,-1.334682583808899,5.192771768136595e-10,2.72197895981376,-2.1268682570915263,3.455366255122235,0.9998263716697693,-0.014551328495144844,-0.011645806021988392,-0.00016949136625044048
0.07251663225510438,-5.5592319191906165,-3.977628432349648,-11.82578574996794,0.04780232189057769,-0.037084100504332654,1.0036664815888534,-1.6724627017974854,-1.3436331748962402,3.3257174791856414e-09,2.7249487663244376,-2.113644156037493,3.449577576633182,0.9998248219490051,-0.01459346804767847,-0.011723893694579601,-0.00017112221394199878
0.073016746960312,-5.55470969017259,-3.972871230971571,-11.8422469762225,0.04785424741960333,-0.036853221414748005,1.0037223203113224,-1.677201509475708,-1.3525508642196655,-1.0307152353838944e-10,2.727776009591906,-2.100375156909831,3.4436920818223307,0.999823272228241,-0.01463480293750763,-0.011801695451140404,-0.00017274601850658655
0.07351686166551961,-5.550120682246935,-3.9681581242535544,-11.85868634444035,0.04790387784023756,-0.036621685042324145,1.003781176851667,-1.6818488836288452,-1.3614356517791748,2.3749640032377783e-09,2.730464085336094,-2.0870640123294533,3.437713819237815,0.9998217821121216,-0.014675336889922619,-0.011879208497703075,-0.00017436244525015354
0.07401697637072724,-5.545462455077966,-3.963488566017942,-11.875095162040466,0.047951273071580466,-0.03638953728018399,1.0038430283497102,-1.6864044666290283,-1.3702867031097412,2.453179326344923e-10,2.7330164579521905,-2.073713499662668,3.4316469142327084,0.9998202919960022,-0.014715071767568588,-0.011956427246332169,-0.00017597130499780178
0.07451709107593485,-5.540732450459551,-3.9588618980270796,-11.89146493912141,0.04799649403460799,-0.03615682438249899,1.003907850234279,-1.6908687353134155,-1.379103660583496,1.8380661437333856e-09,2.7354366553819642,-2.0603264192897126,3.425495563644143,0.9998188018798828,-0.014754009433090687,-0.01203334890305996,-0.0001775723067112267
0.07501720578114246,-5.535927993067164,-3.954277352221816,-11.90778739292273,0.0480396025645347,-0.03592359293797294,1.0039756162437838,-1.6952420473098755,-1.3878860473632812,4.725882463141318e-10,2.7377282639513525,-2.046905592860633,3.419264030392994,0.9998173117637634,-0.014792152680456638,-0.012109968811273575,-0.00017916523211169988
0.07551732048635008,-5.5310462913546825,-3.9497340531532035,-11.924054451817426,0.048080661322836345,-0.0356898898431715,1.0040462984481904,-1.6995244026184082,-1.3966336250305176,2.811271881952848e-09,2.7398949231819776,-2.0334538615406696,3.412956638012438,0.999815821647644,-0.014829503372311592,-0.012186285108327866,-0.0001807498192647472
0.0760174351915577,-5.5260844385928545,-3.9452310206012733,-11.940258258839163,0.04811973370905526,-0.035455762275727484,1.0041198672723815,-1.7037163972854614,-1.4053456783294678,5.057180785250637e-10,2.7419403205841566,-2.019974084247294,3.40657776511368,0.9998143315315247,-0.014866064302623272,-0.012262292206287384,-0.0001823258789954707
0.07651754989676532,-5.521039414046167,-3.940767172374453,-11.956391174748727,0.04815688377251102,-0.035221257667452335,1.0041962915208817,-1.7078180313110352,-1.4140220880508423,2.1708725095326287e-10,2.743868186439046,-2.0064691358810456,3.4001318397972815,0.9998128414154053,-0.014901838265359402,-0.012337987311184406,-0.00018389310571365058
0.07701766460197293,-5.515908084284666,-3.936341327282945,-11.97244578064493,0.048192176124038553,-0.03498642367738239,1.0042755384039508,-1.7118297815322876,-1.4226624965667725,1.937099591842184e-09,2.7456822885774206,-1.9929419055522162,3.393623334018377,0.9998113512992859,-0.014936828054487705,-0.012413368560373783,-0.0001854513247963041
0.07751777930718055,-5.510687204627149,-3.931952208279069,-11.988414880126205,0.04822567584787428,-0.034751308164789364,1.0043575735649928,-1.7157522439956665,-1.4312664270401,-6.256990481290359e-10,2.7473864271626685,-1.9793952948055364,3.387056757914314,0.9998099207878113,-0.014971036463975906,-0.012488431297242641,-0.00018700030341278762
0.07801789401238816,-5.505373420712025,-3.92759844575747,-12.004291501009586,0.04825744841381102,-0.03451595916218323,1.004442361109295,-1.7195852994918823,-1.4398335218429565,4.4793946329946266e-10,2.748984429485403,-1.9658322158448394,3.3804366541030597,0.9998084902763367,-0.015004466287791729,-0.012563173659145832,-0.0001885398232843727
0.07851800871759577,-5.499963270191908,-3.923278581007693,-12.020068896614701,0.04828755958973986,-0.034280424848334844,1.0045298636340554,-1.723329782485962,-1.4483636617660522,-1.5233404537795536e-09,2.7504801447770886,-1.9522555897597265,3.373767591960779,0.9998070597648621,-0.015037121251225471,-0.012637591920793056,-0.00019006968068424612
0.0790181234228034,-5.494453184548044,-3.9189910698116135,-12.035740546620934,0.04831607535469683,-0.034044753521345436,1.004620042259691,-1.7269854545593262,-1.456856369972229,1.2307327379446065e-10,2.751877439049942,-1.938668344756167,3.3670541618869807,0.9998056292533875,-0.015069004148244858,-0.012711684219539165,-0.0001915896573336795
0.07951823812801101,-5.488839491020413,-3.9147342861779073,-12.05130015750677,0.04834306181253017,-0.033808993571788876,1.0047128566623977,-1.7305535078048706,-1.465311884880066,1.0726726173970746e-09,2.7531801899703106,-1.925073414392947,3.360300969565579,0.9998043179512024,-0.015100119635462761,-0.012785451486706734,-0.00019309962226543576
0.08001835283321863,-5.483118414649354,-3.9105065262056584,-12.066741662580682,0.048368585106302014,-0.03357319345595199,1.004808265107945,-1.7340331077575684,-1.473728895187378,-7.778075405973084e-10,2.7543922817725757,-1.9114737358257905,3.3535126302301617,0.9998027682304382,-0.015130465850234032,-0.01285888534039259,-0.00019459931354504079
0.08051846753842624,-5.477286080424406,-3.9063060120690323,-12.082059221613775,0.04839271133353703,-0.03333740166919725,1.0049062244866722,-1.7374261617660522,-1.48210871219635,2.6445172718325693e-09,2.7555176002205615,-1.8978722480609667,3.346693762941772,0.999801516532898,-0.015160053968429565,-0.012931990437209606,-0.00019608857110142708
0.08101858224363387,-5.471338515536027,-3.9021308961148145,-12.097247220084869,0.04841550646242706,-0.0331016667194713,1.0050066903496766,-1.7407315969467163,-1.4904494285583496,1.641980107436325e-09,2.7565600276231605,-1.884271890220086,3.339848984887308,0.9998000264167786,-0.015188880264759064,-0.013004758395254612,-0.00019756720575969666
0.08151869694884148,-5.4652716517257725,-3.8979792650645617,-12.11230026804898,0.04843703624910054,-0.03286603710098183,1.005109616946155,-1.743950605392456,-1.4987521171569824,1.512596603525651e-09,2.757523437910936,-1.8706755998177602,3.332982905706774,0.9997986555099487,-0.015216952189803123,-0.013077192939817905,-0.00019903508655261248
0.08201881165404909,-5.459081327730417,-3.893849144312951,-12.127213198641206,0.04845736615606063,-0.03263056126806409,1.0052149572618847,-1.7470840215682983,-1.5070164203643799,2.1863988397541334e-09,2.758411691780071,-1.8570863110537124,3.326100121857304,0.9997974038124084,-0.015244274400174618,-0.013149291276931763,-0.00020049200975336134
0.08251892635925671,-5.4527632918155495,-3.889738502313976,-12.141981066227828,0.04847656127189523,-0.03239528760925754,1.005322663058801,-1.7501308917999268,-1.5152411460876465,1.9663974615280466e-10,2.7592286319100854,-1.8435069531208719,3.3192052110220263,0.9997959136962891,-0.015270845964550972,-0.013221047818660736,-0.0002019378007389605
0.08301904106446432,-5.446313204394031,-3.885645255046418,-12.1565991442173,0.048494686232357934,-0.032160264421611594,1.005432684915665,-1.7530934810638428,-1.523427963256836,1.218725342866378e-09,2.759978078261329,-1.8299404485308628,3.3123027265714766,0.9997946619987488,-0.015296678058803082,-0.013292469084262848,-0.0002033723721979186
0.08351915576967195,-5.4397266407247455,-3.88156727055017,-12.17106292254405,0.04851180514291732,-0.031925539885238864,1.0055449722697762,-1.7559703588485718,-1.5315748453140259,-9.367475545252191e-11,2.7606638234583,-1.8163897114582983,3.305397192085411,0.9997932314872742,-0.015321766026318073,-0.013363546691834927,-0.00020479547674767673
0.08401927047487956,-5.432999093687019,-3.8775023735248846,-12.185368104838226,0.048527981502867114,-0.03169116203813296,1.005659473459706,-1.7587639093399048,-1.5396835803985596,1.4911539780726457e-09,2.7612896282644317,-1.802857646105164,3.2984930959425642,0.9997920393943787,-0.015346121974289417,-0.013434287160634995,-0.00020620708528440446
0.08451938518008718,-5.426125976626119,-3.873448349982373,-12.199510605295139,0.048543278131088795,-0.03145717875126666,1.005776135769028,-1.7614727020263672,-1.5477523803710938,5.136124858751145e-10,2.7618592171539316,-1.7893471450864913,3.2915948859858637,0.999790608882904,-0.015369742177426815,-0.01350468210875988,-0.0002076069504255429
0.0850194998852948,-5.419102626265198,-3.8694029519443367,-12.213486545258041,0.04855775709355283,-0.03122363770398572,1.0058949054710093,-1.7640987634658813,-1.555782675743103,6.715770162202261e-10,2.76237627398594,-1.7758610878385042,3.284706964270452,0.9997894167900085,-0.015392638742923737,-0.01357473898679018,-0.0002089950576191768
0.0855196145905024,-5.41192430567908,-3.8653639021769757,-12.227292249528427,0.04857147963264257,-0.030990586359711605,1.00601572787423,-1.7666412591934204,-1.5637729167938232,-4.768035358898581e-12,2.7628444377861197,-1.7624023390502728,3.2778336819017264,0.9997879862785339,-0.015414808876812458,-0.013644449412822723,-0.00021037118858657777
0.08601972929571003,-5.404586207325317,-3.861328898954025,-12.240924242418064,0.04858450609838094,-0.030758071941966048,1.0061385473691093,-1.7691020965576172,-1.5717246532440186,3.617821875412375e-10,2.7632672986405002,-1.7489737471198563,3.2709793339704296,0.9997867941856384,-0.015436263754963875,-0.013713820837438107,-0.0002117352996720001
0.08651984400091764,-5.3970834561279615,-3.857295620839974,-12.25437924355729,0.04859689588163606,-0.030526141410729197,1.006263307475293,-1.771480917930603,-1.5796366930007935,5.885547049722106e-10,2.7636483937062173,-1.7355781426358825,3.2641481545917106,0.9997855424880981,-0.015457002446055412,-0.013782846741378307,-0.00021308718714863062
0.08701995870612526,-5.389411112609509,-3.853261731485217,-12.267654163474033,0.048608707349378895,-0.030294841439141077,1.006389950889879,-1.7737782001495361,-1.5875093936920166,9.003066625545841e-10,2.763991203343499,-1.722218336885328,3.2573443120548404,0.9997842907905579,-0.015477031469345093,-0.013851530849933624,-0.00021442682191263884
0.08752007341133287,-5.381564176066544,-3.849224884424977,-12.280746098958222,0.04861999778206126,-0.03006421839055617,1.0065184195364523,-1.7759947776794434,-1.595342993736267,-3.7894221094347813e-10,2.764299147372991,-1.7088971203882724,3.250571904090096,0.9997830390930176,-0.01549635548144579,-0.013919872231781483,-0.00021575410210061818
0.0880201881165405,-5.373537587784677,-3.8451827278740436,-12.293652328226392,0.048630823313179805,-0.029834318295958923,1.0066486546148805,-1.7781308889389038,-1.6031372547149658,1.7460063395091652e-09,2.7645755814623567,-1.6956172614602871,3.243834953259206,0.9997817873954773,-0.0155149782076478,-0.013987870886921883,-0.00021706886764150113
0.08852030282174811,-5.365326234288353,-3.841132909509431,-12.306370305901211,0.048641238871086415,-0.02960518683174754,1.0067805966518435,-1.7801872491836548,-1.6108922958374023,2.2645136876775496e-09,2.7648237936457196,-1.6823815048030528,3.2371374024754727,0.999780535697937,-0.015532905235886574,-0.014055527746677399,-0.00021837108943145722
0.08902041752695572,-5.356924950621253,-3.8370730812331924,-12.318897657820633,0.04865129812310197,-0.029376869297891482,1.0069141855520782,-1.7821649312973022,-1.6186084747314453,1.5042277423660266e-09,2.765047000979249,-1.6691925701236479,3.2304831106594043,0.9997794032096863,-0.015550143085420132,-0.014122845605015755,-0.00021966070926282555
0.08952053223216334,-5.348328523653046,-3.8330009039078794,-12.331232175691547,0.04866105342198647,-0.029149410596468178,1.0070493606502708,-1.7840629816055298,-1.6262850761413574,1.94621874172185e-09,2.7652483463360737,-1.6560531507830234,3.223875848535715,0.9997780919075012,-0.0155666908249259,-0.014189818874001503,-0.00022093753796070814
0.09002064693737095,-5.33953169540834,-3.8289140520571747,-12.343371811602381,0.04867055575481365,-0.02892285521058242,1.0071860607635976,-1.7858835458755493,-1.6339229345321655,-5.910738565262363e-10,2.7654308953432225,-1.6429659124739249,3.217319294576992,0.9997768998146057,-0.015582558698952198,-0.014256454072892666,-0.00022220160462893546
0.09052076164257858,-5.330529166413744,-3.824810218524552,-12.355314672409484,0.048679854694294776,-0.028697247183671497,1.0073242242448448,-1.7876266241073608,-1.6415224075317383,5.058609642283329e-10,2.7655976334632304,-1.6299334919286077,3.2108170310993844,0.9997758269309998,-0.015597752295434475,-0.014322752133011818,-0.00022345282195601612
0.09102087634778619,-5.32131559905903,-3.820687119082877,-12.367059014011526,0.048688998352591335,-0.028472630099197666,1.0074637890361058,-1.789292335510254,-1.6490823030471802,-2.291867362558264e-09,2.7657514632225917,-1.6169584956564607,3.2043725405151573,0.9997745156288147,-0.015612270683050156,-0.014388708397746086,-0.00022469108807854354
0.09152099105299381,-5.311885620968485,-3.81654249698816,-12.378603235526432,0.04869803333765288,-0.028249047060729116,1.007604692722979,-1.7908821105957031,-1.6566044092178345,-1.2191220255530766e-09,2.765895201589171,-1.6040434987117558,3.19798920174696,0.9997734427452087,-0.015626126900315285,-0.014454332180321217,-0.00022591641754843295
0.09202110575820142,-5.302233828378581,-3.8123741274708607,-12.389945873384749,0.04870700471211158,-0.02802654067240908,1.0077468725892742,-1.792396068572998,-1.6640876531600952,1.2497872736716431e-09,2.7660315775002156,-1.5911910434914753,3.191670286808107,0.9997722506523132,-0.015639320015907288,-0.014519618824124336,-0.00022712867939844728
0.09252122046340903,-5.292354789518273,-3.808179822158306,-12.401085595353697,0.04871595595476085,-0.02780515301981252,1.0078902656721507,-1.7938346862792969,-1.6715327501296997,4.790426944012438e-10,2.766163229542511,-1.5784036385632931,3.1854189575531606,0.9997711181640625,-0.01565185748040676,-0.014584571123123169,-0.00022832788818050176
0.09302133516861666,-5.282243047988208,-3.803957433422146,-12.412021194505327,0.048724928924641295,-0.0275849256511881,1.008034808817675,-1.7951990365982056,-1.6789395809173584,1.3418047783986253e-09,2.7662927037858696,-1.565683757523557,3.179238262602601,0.9997699856758118,-0.015663744881749153,-0.014649190939962864,-0.00022951397113502026
0.09352144987382427,-5.271893126135309,-3.7997048586447746,-12.422751583142409,0.04873396382775296,-0.027365899559083418,1.0081804387367483,-1.7964892387390137,-1.6863086223602295,3.832594241970355e-09,2.7664224517708806,-1.5530338378851738,3.173131134445216,0.999768853187561,-0.01567498780786991,-0.01471348013728857,-0.00023068691371008754
0.0940215645790319,-5.261299528419279,-3.7954200443991994,-12.433275786695237,0.048743099186408935,-0.027148115162349648,1.0083270920613703,-1.7977067232131958,-1.693640112876892,1.441302299731717e-09,2.7665548286516537,-1.5404562799951693,3.1671003867214784,0.9997678399085999,-0.015685591846704483,-0.014777440577745438,-0.0002318467159057036
0.0945216792842395,-5.250456744767591,-3.7911009905368007,-12.443592937602222,0.048752371811240564,-0.026931612288521967,1.008474705401195,-1.798850655555725,-1.700933575630188,3.816736260375819e-09,2.7666920914939532,-1.5279534459816742,3.1611487116908683,0.9997667074203491,-0.015695558860898018,-0.014841071330010891,-0.00023299323220271617
0.09502179398944713,-5.239359253915786,-3.78674575417782,-12.45370226918694,0.048761816775860785,-0.026716430156570756,1.0086232154003523,-1.7999224662780762,-1.7081893682479858,1.0615595069651818e-09,2.7668363977288863,-1.5155276587300068,3.155278677885764,0.9997655153274536,-0.015704896301031113,-0.01490437425673008,-0.00023412653536070138
0.09552190869465474,-5.228001526729793,-3.7823524535996618,-12.463603109543829,0.04877146739418845,-0.02650260736001855,1.0087725587944736,-1.8009231090545654,-1.7154086828231812,1.8379885391439643e-09,2.7669898037621374,-1.503181200887521,3.1494927279542937,0.9997645616531372,-0.015713611617684364,-0.0149673568084836,-0.00023524659627582878
0.09602202339986235,-5.2163780295072435,-3.777919272018317,-12.473294875444555,0.048781355200431455,-0.02629018185041668,1.0089226724679132,-1.8018527030944824,-1.7225903272628784,6.185477130493666e-10,2.767154263738344,-1.4909163138967525,3.1437931766940186,0.9997633695602417,-0.015721706673502922,-0.015030013397336006,-0.0002363533858442679
0.09652213810506997,-5.204483227254768,-3.7734444612585305,-12.482777066276714,0.04879150993172316,-0.02607919092117553,1.009073493511091,-1.8027129173278809,-1.7297359704971313,2.860104375557171e-09,2.7673316284601337,-1.4787351970564817,3.138182209278205,0.9997624158859253,-0.01572919450700283,-0.015092352405190468,-0.00023744693316984922
0.09702225281027758,-5.192311586938379,-3.7689263453085338,-12.492049258025872,0.0488019595134029,-0.025869671191741512,1.0092249592779463,-1.8035025596618652,-1.736844539642334,-1.0412512518875872e-10,2.767523644460973,-1.466640006610157,3.1326618796758994,0.9997613430023193,-0.01573607139289379,-0.015154371038079262,-0.00023852719459682703
0.09752236751548521,-5.179857580704153,-3.764363323755504,-12.501111097312084,0.04881273004692658,-0.02566165859211355,1.0093770074434447,-1.8042237758636475,-1.7439168691635132,1.684205830354557e-10,2.7677319532308364,-1.4546328548611802,3.1272341092667792,0.9997602701187134,-0.0157423485070467,-0.015216073021292686,-0.00023959415557328612
0.09802248222069282,-5.167115689066448,-3.759753875098136,-12.509962295491052,0.04882384580039084,-0.025455188347692077,1.009529576061103,-1.8048765659332275,-1.7509533166885376,2.0284323110075775e-09,2.7679580905934467,-1.4427158093145034,3.121900685651405,0.9997592568397522,-0.015748029574751854,-0.015277460217475891,-0.00024064781609922647
0.09852259692590044,-5.154080404061137,-3.7550965599329817,-12.51860262283015,0.04883532920164928,-0.025250294964451955,1.0096826036204902,-1.8054617643356323,-1.7579536437988281,2.0979229464757054e-09,2.7682034862336127,-1.4308908918439058,3.1166632616570418,0.999758243560791,-0.01575312204658985,-0.0153385354205966,-0.00024168823438230902
0.09902271163110805,-5.1407462323612805,-3.750390024011531,-12.527031902768822,0.048847200833996726,-0.0250470122144324,1.00983602910467,-1.8059802055358887,-1.7649186849594116,3.718531038643391e-10,2.7684694633729987,-1.4191600778843827,3.1115233545389653,0.9997572302818298,-0.01575762964785099,-0.015399300493299961,-0.00024271539587061852
0.09952282633631568,-5.127107698352793,-3.745633001165174,-12.535250006272603,0.04885947943439323,-0.024845373121535078,1.0099897920475294,-1.8064327239990234,-1.7718487977981567,1.856989562121214e-09,2.7687572385924617,-1.4075252956489859,3.1064823453767674,0.9997563362121582,-0.015761561691761017,-0.015459760092198849,-0.00024372932966798544
0.10002294104152329,-5.1131593471678585,-3.7408243160955856,-12.543256846289419,0.04887218189419629,-0.0246454099476226,1.0101438325909684,-1.8068188428878784,-1.7787429094314575,1.5260864794086615e-09,2.7690679217988494,-1.3959884253694672,3.1015414786647626,0.9997552037239075,-0.01576491817831993,-0.01551990956068039,-0.0002447300066705793
0.1005230557467309,-5.098895747673727,-3.7359628870282098,-12.551052372316652,0.04888532326236667,-0.0244471541789092,1.0102980915418993,-1.8071409463882446,-1.7856031656265259,4.37687663890074e-09,2.7694025163340292,-1.3845512985600767,3.0967018620953186,0.9997543096542358,-0.015767712146043777,-0.015579759143292904,-0.0002457174996379763
0.10102317045193852,-5.08431149541485,-3.7310477282268804,-12.558636565086639,0.04889891675110929,-0.024250636512635353,1.010452510429012,-1.8073979616165161,-1.7924281358718872,-4.569509659546611e-09,2.7697619192236766,-1.3732156973038312,3.091964466533514,0.9997532367706299,-0.015769939869642258,-0.015639303252100945,-0.0002466917794663459
0.10152328515714613,-5.069401215506143,-3.7260779523677994,-12.566009431378207,0.048912973743908614,-0.024055886844018413,1.0106070315592746,-1.8075917959213257,-1.7992194890975952,2.936593856972536e-09,2.770146921563224,-1.3619833535605825,3.0873301261811807,0.999752402305603,-0.015771616250276566,-0.01569855399429798,-0.0002476528752595186
0.10202339986235376,-5.054159565475556,-3.721052772771416,-12.573170998961151,0.048927503805913666,-0.023862934253471416,1.0107615980741156,-1.807722806930542,-1.805976390838623,3.044511864835897e-10,2.7705582090381644,-1.350855948496219,3.082799538928046,0.9997514486312866,-0.01577274315059185,-0.015757504850625992,-0.0002486008743289858
0.10252351456756137,-5.038581238053789,-3.7159715054909155,-12.580121311680148,0.04894251469662597,-0.023671806994082133,1.010916154005248,-1.8077911138534546,-1.8127000331878662,8.408453933128612e-10,2.7709963625757927,-1.3398351118323135,3.078373266887343,0.9997504949569702,-0.01577332615852356,-0.015816163271665573,-0.000249535747570917
0.103023629272769,-5.022660963909518,-3.71083357125638,-12.586860424684291,0.04895801238484056,-0.023482532479344908,1.0110706443300999,-1.807798147201538,-1.8193894624710083,1.2064422794111351e-09,2.7714618591252744,-1.3289224212155488,3.074051737112873,0.9997495412826538,-0.01577337272465229,-0.015874527394771576,-0.00025045755319297314
0.1035237439779766,-5.006393514328155,-3.705638497273778,-12.59338839980786,0.048974001065787455,-0.023295137271138154,1.0112250150267994,-1.8077447414398193,-1.8260467052459717,4.637461525902609e-09,2.7719550725628337,-1.318119401606265,3.0698352424942352,0.999748706817627,-0.01577289029955864,-0.015932606533169746,-0.00025136637850664556
0.10402385868318421,-4.989773703832558,-3.7003859188783434,-12.599705301107475,0.04899048318041877,-0.023109647067940477,1.0113792131286798,-1.807630181312561,-1.8326700925827026,-3.0905214498666567e-10,2.7724762747186884,-1.3074275246854756,3.0657239428265584,0.9997476935386658,-0.015771878883242607,-0.015990393236279488,-0.0002522621944081038
0.10452397338839184,-4.972796392743879,-3.69507558104198,-12.60581119056046,0.04900745943678367,-0.0229260866932793,1.011533186778251,-1.807456374168396,-1.8392611742019653,1.1260240517785292e-09,2.7730256365222576,-1.2968482082797508,3.0617178660507784,0.9997467994689941,-0.01577034965157509,-0.016047896817326546,-0.0002531450300011784
0.10502408809359945,-4.95545648968105,-3.689707339734662,-12.611706123928824,0.04902492883343201,-0.02274448008440605,1.0116868852806136,-1.807224154472351,-1.8458198308944702,5.7032858435945855e-09,2.773603229262022,-1.2863828158033401,3.0578169096601724,0.9997459053993225,-0.01576830819249153,-0.01610511913895607,-0.0002540149725973606
0.10552420279880707,-4.937748953997285,-3.6842811631399903,-12.61739014679263,0.0490428886847843,-0.0225648502811927,1.0118402591562452,-1.8069332838058472,-1.8523465394973755,-3.262628611722107e-09,2.774209025956373,-1.2760326557170008,3.054020842268645,0.9997450113296509,-0.015765756368637085,-0.01616206020116806,-0.0002548721095081419
0.10602431750401468,-4.919668798152129,-3.6787971327252205,-12.622863290756321,0.04906133464840447,-0.022387219415244793,1.0119932601931447,-1.8065853118896484,-1.8588414192199707,7.578925820261873e-10,2.7748429028316024,-1.2657989810029528,3.0503293053358522,0.9997442364692688,-0.015762705355882645,-0.016218723729252815,-0.0002557163534220308
0.10652443220922231,-4.9012110900176085,-3.6732554441663776,-12.628125569831138,0.04908026075410923,-0.02221160869922729,1.0121458414982747,-1.806180477142334,-1.8653042316436768,-1.94969929090405e-09,2.77550464090314,-1.2556829886554879,3.046741815044072,0.9997433423995972,-0.01575915701687336,-0.016275109723210335,-0.00025654787896201015
0.10702454691442992,-4.882370955117063,-3.6676564081292,-12.633176976996268,0.04909965943484707,-0.022038038416399515,1.0122979575482565,-1.805719017982483,-1.87173593044281,1.809551619658123e-09,2.7761939276561223,-1.245685819186747,3.0432577643215084,0.9997424483299255,-0.015755118802189827,-0.016331223770976067,-0.000257366627920419
0.10752466161963753,-4.863143578795358,-3.6620004509068447,-12.638017480940935,0.04911952155927692,-0.021866527910356755,1.012449564239294,-1.8052024841308594,-1.8781365156173706,2.621077799247473e-10,2.776910358821134,-1.235808556147229,3.0398764250063173,0.9997416138648987,-0.015750596299767494,-0.01638706587255001,-0.00025817277492024004
0.10802477632484515,-4.843524208319129,-3.6562881149155246,-12.642647022989442,0.049139836465976666,-0.021697095574976774,1.0126006189362589,-1.8046311140060425,-1.884506344795227,-1.5056295099569184e-09,2.7776534402411315,-1.2260522256606747,3.0365969501456633,0.9997407793998718,-0.01574559696018696,-0.016442639753222466,-0.00025896631996147335
0.10852489103005276,-4.823508154905832,-3.6505200590493585,-12.647065514210679,0.049160591999208775,-0.021529758844570018,1.0127510805209143,-1.80400550365448,-1.8908452987670898,-1.6040954675666796e-10,2.7784225898252743,-1.216417795972947,3.0334183764236626,0.999739944934845,-0.015740124508738518,-0.01649794541299343,-0.0002597472630441189
0.10902500573526039,-4.8030907956803235,-3.6446970588959,-12.651272832713223,0.04918177454617031,-0.021364534184233414,1.0129009094392258,-1.803326964378357,-1.8971543312072754,4.075594528529791e-09,2.7792171395855108,-1.2069061770146479,3.030339626712084,0.9997392296791077,-0.015734190121293068,-0.016552988439798355,-0.0002605157787911594
0.109525120440468,-4.782267575557867,-3.638820006813992,-12.65526882112689,0.049203369075652974,-0.021201437080408662,1.013050067747713,-1.8025954961776733,-1.9034329652786255,1.6254582124730632e-09,2.78003633775166,-1.1975182199772239,3.0273595127374215,0.9997383952140808,-0.01572779379785061,-0.01660776697099209,-0.0002612718672025949
0.11002523514567562,-4.761034009052391,-3.632889911875668,-12.65905328427123,0.0492253591780377,-0.021040482031646268,1.013198519158813,-1.801811695098877,-1.9096815586090088,-1.0522043236704803e-09,2.7808793509606486,-1.1882547169023596,3.0244767378577713,0.999737560749054,-0.015720942988991737,-0.01666228473186493,-0.00026201558648608625
0.11052534985088323,-4.739385682008831,-3.6269078996740394,-12.662625987011145,0.04924772710654813,-0.02088168253957836,1.0133462290852004,-1.8009767532348633,-1.9159005880355835,9.181541082980971e-10,2.781745266515665,-1.1791164002845576,3.021689899942939,0.9997367858886719,-0.0157136432826519,-0.016716543585062027,-0.00026274696574546397
0.11102546455609084,-4.717318253258619,-3.6208752119992385,-12.66598665229943,0.04927045381968598,-0.020725051100103094,1.0134931646830225,-1.8000909090042114,-1.9220902919769287,-6.901939575421068e-10,2.782633094710863,-1.1701039426867967,3.018997494350977,0.9997360110282898,-0.015705900266766548,-0.01677054539322853,-0.00026346606318838894
0.11152557926129847,-4.6948274561971095,-3.6147932063845003,-12.669134959405831,0.04929351902477082,-0.020570599194785384,1.0136392948940236,-1.7991547584533691,-1.9282504320144653,7.959749526165183e-10,2.7835417712172426,-1.161217956369251,3.0163979169942765,0.9997352361679077,-0.015697719529271126,-0.01682429201900959,-0.00026417296612635255
0.11202569396650608,-4.671909100282061,-3.6086633555247194,-12.672070542331793,0.04931690122250672,-0.020418337282479042,1.0137845904864886,-1.7981692552566528,-1.9343818426132202,2.0382617815783988e-09,2.784470159525443,-1.1524589929311246,3.013889467488379,0.9997344613075256,-0.01568910852074623,-0.016877785325050354,-0.0002648677327670157
0.1125258086717137,-4.648559072452048,-3.6024872465698636,-12.674792988409925,0.0493405777524975,-0.02026827479117651,1.0139290240949992,-1.7971349954605103,-1.9404841661453247,-3.6378382528567954e-09,2.7854170534410096,-1.1438275429656581,3.0114703523764357,0.9997336864471436,-0.015680070966482162,-0.01693102717399597,-0.00026555045042186975
0.11302592337692131,-4.6247733384640055,-3.5962665802957225,-12.677301837086864,0.049364524839632384,-0.020120420110093386,1.0140725702589273,-1.7960525751113892,-1.946557879447937,4.501732597805841e-10,2.7863811796279063,-1.1353240357285022,3.0091386884224183,0.9997329115867615,-0.015670614317059517,-0.01698402129113674,-0.0002662211481947452
0.11352603808212894,-4.600547944148769,-3.5900031701545485,-12.679596578887951,0.04938871764126353,-0.019974780581995914,1.0142152054596527,-1.7949234247207642,-1.9526041746139526,6.448963030258881e-10,2.787361200195872,-1.1269488388196363,3.006892505966,0.999732255935669,-0.01566074602305889,-0.017036769539117813,-0.00026687997160479426
0.11402615278733655,-4.575879016583862,-3.5836989412082856,-12.681676654562036,0.04941313029509762,-0.019831362495780505,1.0143569081564494,-1.7937464714050293,-1.9586211442947388,8.902149573053464e-10,2.788355715327411,-1.118702257879139,3.004729752332171,0.9997314810752869,-0.015650466084480286,-0.017089268192648888,-0.00026752683334052563
0.11452626749254416,-4.5507627651825695,-3.577355928947097,-12.683541454404336,0.04943773596772289,-0.019690171079315356,1.0144976588210017,-1.792523980140686,-1.9646105766296387,-9.461459393733662e-10,2.789363265940119,-1.110584536297137,3.0026482952885987,0.9997307658195496,-0.015639783814549446,-0.017141522839665413,-0.000268161908024922
0.11502638219775178,-4.52519548269839,-3.570976277996005,-12.685190317755126,0.04946250690369443,-0.019551210492555118,1.014637439970521,-1.7912547588348389,-1.9705713987350464,-2.7063362662005375e-09,2.790382336380145,-1.102595854938321,3.0006459265438186,0.9997299313545227,-0.015628701075911522,-0.01719353348016739,-0.0002687851956579834
0.1155264969029594,-4.499173546144131,-3.5645622407124993,-12.686622532671942,0.0494874144750999,-0.01941448382094063,1.0147762361994144,-1.7899419069290161,-1.9765055179595947,1.2738710086779292e-09,2.791411357142605,-1.0947363318815126,2.99872036527942,0.999729335308075,-0.015617230907082558,-0.017245305702090263,-0.0002693968126550317
0.11602661160816702,-4.472693417624753,-3.5581161756780575,-12.687837335772612,0.04951242923152928,-0.019279993069096633,1.0149140342094674,-1.7885843515396118,-1.982411503791809,1.9928934058555114e-09,2.792448707614846,-1.0870060221748008,2.9968692617094703,0.9997286200523376,-0.015605373308062553,-0.01729683391749859,-0.0002699968172237277
0.11652672631337463,-4.445751645083188,-3.5516405460865146,-12.688833912246405,0.04953752095037221,-0.019147739154841362,1.0150508228385127,-1.7871829271316528,-1.9882901906967163,-8.881100854729596e-10,2.7934927188384444,-1.0794049176068332,2.995090200660495,0.9997279047966003,-0.015593133866786957,-0.017348123714327812,-0.00027058523846790195
0.11702684101858225,-4.41834486295835,-3.545137918032344,-12.689611396030424,0.04956265868736799,-0.01901772190352282,1.0151865930875372,-1.785738468170166,-1.9941414594650269,2.6419253451592795e-09,2.794541676285987,-1.071932946494931,2.993380705165516,0.999727189540863,-0.01558051910251379,-0.017399176955223083,-0.0002711621636990458
0.11752695572378986,-4.390469792754678,-3.538610958701864,-12.69016887014811,0.04958781082733331,-0.01888994004269732,1.0153213381461983,-1.7842516899108887,-1.9999659061431885,2.5717208362863175e-09,2.795593822648634,-1.0645899734907196,2.9917382400657035,0.9997264742851257,-0.015567534603178501,-0.017449993640184402,-0.00027172768022865057
0.11802707042899747,-4.362123243522378,-3.532062434470458,-12.690505367206711,0.04961294513499457,-0.01876439119716705,1.015455053416708,-1.782723307609558,-2.005763292312622,-1.4843941631426105e-09,2.796647360630624,-1.0573757994040793,2.990160215613434,0.999725878238678,-0.015554185956716537,-0.01750057563185692,-0.00027228184626437724
0.1185271851342051,-4.333302112247762,-3.525495208908916,-12.690619870050474,0.04963802880585264,-0.018641071884393755,1.0155877365360597,-1.7811532020568848,-2.011533260345459,-2.3038389251883729e-10,2.7977004557469223,-1.0502901610462103,2.9886439910706297,0.9997251033782959,-0.015540474094450474,-0.017550919204950333,-0.00027282460359856486
0.11902729983941271,-4.304003384153075,-3.5189122407019733,-12.690511312566102,0.04966302851700818,-0.018519977510306714,1.0157193873965515,-1.7795430421829224,-2.017277240753174,3.3043361380435954e-09,2.7987512391202567,-1.0433327310927258,2.9871868782964848,0.9997245669364929,-0.015526412054896355,-0.01760103367269039,-0.00027335615595802665
0.11952741454462033,-4.274224132905066,-3.5123165814822173,-12.690178580637053,0.049687910477878364,-0.018401102365523836,1.0158500081645834,-1.7778921127319336,-2.022993803024292,-2.6476560943677896e-09,2.7997978102739403,-1.0365031179676962,2.9857861453188574,0.9997237920761108,-0.015511996112763882,-0.017650911584496498,-0.00027387653244659305
0.12002752924982794,-4.243961520731886,-3.505711373582427,-12.68962051324306,0.049712640480735586,-0.01828443962200514,1.0159796032976955,-1.7762024402618408,-2.028684616088867,3.2335598088018003e-10,2.800838239916862,-1.0298008657496223,2.9844390198837414,0.9997232556343079,-0.015497240237891674,-0.01770056039094925,-0.0002743857621680945
0.12052764395503557,-4.213212798447635,-3.499099847709484,-12.688835903701374,0.04973718395100155,-0.018169981330158767,1.016108179559808,-1.7744733095169067,-2.034348249435425,8.848313748366365e-11,2.8018705727172546,-1.0232254541003871,2.9831426929775877,0.9997225999832153,-0.015482141636312008,-0.017749978229403496,-0.0002748839324340224
0.12102775866024318,-4.181975305384189,-3.4924853205429933,-12.687823501045896,0.049761505997230726,-0.018057718416420118,1.0162357460346434,-1.7727056741714478,-2.0399856567382812,-4.240957862666761e-10,2.8028928300617766,-1.0167762982182547,2.981894322317276,0.9997219443321228,-0.015466708689928055,-0.01779916323721409,-0.0002753710432443768
0.12152787336545079,-4.150246469229744,-3.4858711922616563,-12.686582011540597,0.049785571460718867,-0.017947640681325292,1.0163623141372944,-1.7709006071090698,-2.0455968379974365,-1.2131575743978829e-09,2.803903012796677,-1.010452748816047,2.9806910358029133,0.9997212886810303,-0.015450946055352688,-0.017848119139671326,-0.0002758472110144794
0.12202798807065841,-4.118023805773747,-3.4792609440005386,-12.685110100323469,0.04980934496467437,-0.017839736798100077,1.016487897623919,-1.769058108329773,-2.0511813163757324,1.057882892396833e-09,2.8048991039478057,-1.0042540921256338,2.9795299349287565,0.9997206330299377,-0.015434859320521355,-0.017896845936775208,-0.0002763124939519912
0.12252810277586602,-4.085304918557832,-3.4726581352422428,-12.683406393177133,0.049832790962891546,-0.017733994311786877,1.016612512599522,-1.7671794891357422,-2.0567400455474854,-7.319100325808847e-10,2.805879071416436,-0.9981795499299693,2.9784080981479115,0.9997200965881348,-0.015418454073369503,-0.017945345491170883,-0.0002767669502645731
0.12302821748107365,-4.052087498432431,-3.4660664011450617,-12.681469478422372,0.04985587378786693,-0.017630399638931527,1.01673617752382,-1.7652636766433716,-2.0622718334198,-4.682249032939012e-10,2.806840870647841,-0.9922282796238666,2.9773225841865654,0.9997193813323975,-0.015401729382574558,-0.017993612214922905,-0.00027721055084839463
0.12352833218628126,-4.018369323018819,-3.4594894498110698,-12.67929790893072,0.04987855769830118,-0.01752893806785256,1.0168589132151322,-1.7633131742477417,-2.0677785873413086,1.94402804964966e-09,2.807782447269809,-0.9863993743048021,2.9762704353039053,0.9997189044952393,-0.01538469735532999,-0.01804165542125702,-0.0002776434412226081
0.12402844689148888,-3.984148256076444,-3.452931059497157,-12.676890204252262,0.04990080692593156,-0.01742959375951583,1.0169807428523179,-1.7613266706466675,-2.0732579231262207,1.648062242232129e-09,2.8087017396982312,-0.9806918628949964,2.9752486804939653,0.999718189239502,-0.01536735612899065,-0.01808946579694748,-0.00027806562138721347
0.1245285615966965,-3.9494222467753715,-3.4463950757719197,-12.67424485285493,0.049922585721641884,-0.017332349749037315,1.0171016919747007,-1.7593064308166504,-2.078711986541748,1.3942548504619623e-10,2.8095966817071805,-0.9751047102961207,2.9742543386260776,0.9997177124023438,-0.015349715948104858,-0.018137052655220032,-0.0002784772077575326
0.12502867630190412,-3.914189328873873,-3.4398854086213086,-12.67136031447127,0.04994385840079798,-0.017237187947837188,1.017221788479977,-1.757251262664795,-2.084139585494995,-7.189637218907308e-10,2.810465204960835,-0.9696368175779327,2.973284421520708,0.9997169971466064,-0.015331774018704891,-0.01818440854549408,-0.000278878171229735
0.12552879100711173,-3.878447619801105,-3.4334060295059214,-12.668235022549132,0.049964589387759765,-0.017144089146468238,1.0173410626200978,-1.7551630735397339,-2.089541435241699,5.235119560076384e-10,2.811305241504809,-0.9642870222021935,2.9723359369577533,0.9997165203094482,-0.015313542447984219,-0.01823154091835022,-0.00027926862821914256
0.12602890571231934,-3.842195319645157,-3.4269609683727382,-12.664867386802298,0.04998474325952304,-0.01705303301814164,1.0174595469950856,-1.753041386604309,-2.094917058944702,1.9510240090170328e-09,2.8121147262145776,-0.9590540982832292,2.971405891614736,0.9997159242630005,-0.015295019373297691,-0.018278442323207855,-0.00027964854962192476
0.12652902041752695,-3.8054307100464424,-3.4205543106241314,-12.661255795857507,0.05000428478844484,-0.016963998122972855,1.0175772765447892,-1.7508870363235474,-2.100266456604004,-3.582322438688834e-09,2.8128915991986823,-0.9539367568864854,2.970491293932397,0.9997153282165527,-0.015276212245225906,-0.018325116485357285,-0.00028001811006106436
0.1270291351227346,-3.7681521529969184,-3.414190194046832,-12.65739861999391,0.05002317898401055,-0.01687696191297041,1.0176942885385591,-1.7487009763717651,-2.1055898666381836,1.096123053434539e-10,2.8136338081546466,-0.9489336463664428,2.969589156905608,0.9997148513793945,-0.015257125720381737,-0.018371565267443657,-0.00028037722222507
0.1275292498279422,-3.7303580895453243,-3.4078728057036467,-12.653294213971568,0.050041391133601065,-0.016791900737789873,1.017810622562823,-1.7464826107025146,-2.110886812210083,6.642877914408984e-10,2.814339310675543,-0.9440433527452594,2.968696500797693,0.9997142553329468,-0.015237760730087757,-0.018417783081531525,-0.00028072597342543304
0.1280293645331498,-3.6920470384090174,-3.401606378790507,-12.648940919945113,0.05005888684222173,-0.01670878985127494,1.0179263205065574,-1.7442331314086914,-2.1161580085754395,2.343693683570791e-09,2.815006076505326,-0.9392644001334849,2.967810355776512,0.9997137188911438,-0.01521812193095684,-0.018463773652911186,-0.00028106439276598394
0.12852947923835742,-3.6532175944928866,-3.3953951894615537,-12.644337070459109,0.05007563207115667,-0.016627603418807396,1.018041426544655,-1.7419525384902954,-2.1214027404785156,3.904683798516828e-10,2.815632089741093,-0.9345952511941849,2.9669277644708956,0.9997131824493408,-0.015198213048279285,-0.018509535118937492,-0.00028139256755821407
0.12902959394356503,-3.6138684273160533,-3.3892435536248087,-12.639480991521465,0.050091593175513545,-0.016548314525486576,1.0181559871191543,-1.7396414279937744,-2.1266210079193115,1.4754697463814637e-09,2.8162153509806163,-0.9300343076518081,2.966045784446289,0.9997126460075378,-0.015178038738667965,-0.018555065616965294,-0.0002817104395944625
0.12952970864877267,-3.5739982793471006,-3.3831558237110393,-12.634371005751468,0.050106736940627346,-0.01647089518515895,1.0182700509183622,-1.7373005151748657,-2.131812810897827,2.2642685504337123e-09,2.816753879413512,-0.9255799108470659,2.9651614905986152,0.9997121095657349,-0.015157602727413177,-0.01860036700963974,-0.00028201815439388156
0.13002982335398028,-3.5336059642487982,-3.377136385418334,-12.629005435598831,0.05012103061729273,-0.01639531635031723,1.0183836688538348,-1.7349296808242798,-2.1369786262512207,2.7540243419110766e-09,2.8172457148545975,-0.9212303423391164,2.9642719774657063,0.9997115731239319,-0.015136906877160072,-0.01864543929696083,-0.00028231568285264075
0.1305299380591879,-3.4926903650332703,-3.371189654434855,-12.623382606630406,0.05013444195579745,-0.01632154792288793,1.0184968940352368,-1.7325295209884644,-2.142117977142334,2.944783084046776e-09,2.8176889197180337,-0.9169838245562614,2.963374361455771,0.9997110366821289,-0.015115955844521523,-0.018690280616283417,-0.000282603083178401
0.1310300527643955,-3.451250432128699,-3.365320073142251,-12.617500850881108,0.05014693923873191,-0.01624955876592556,1.0186097817430653,-1.730100393295288,-2.147230625152588,-5.017571913512597e-10,2.8180815809310467,-0.9128385214963807,2.9624657829926986,0.9997105002403259,-0.015094751492142677,-0.01873488910496235,-0.00028288038447499275
0.13153016746960314,-3.4092851813587832,-3.3595321073021003,-12.611358510265724,0.05015849131255179,-0.016179316716229977,1.0187223893992516,-1.7276427745819092,-2.152316093444824,-9.126817634985684e-10,2.818421811786044,-0.9087925394782139,2.961543408578107,0.999709963798523,-0.01507329847663641,-0.018779264762997627,-0.000283147586742416
0.13203028217481075,-3.3667936918362584,-3.3538302427277626,-12.604953940048174,0.050169067617872674,-0.0161107885979036,1.0188347765356394,-1.7251574993133545,-2.1573758125305176,-2.1610770950530878e-09,2.8187077537300875,-0.9048439279446326,2.960604432770315,0.9997095465660095,-0.015051601454615593,-0.0188234094530344,-0.0002834047772921622
0.13253039688001836,-3.32377510377188,-3.3482189819439596,-12.598285512365061,0.050178638218479364,-0.016043940236862904,1.0189470047603437,-1.7226437330245972,-2.1624081134796143,3.4942302384877166e-09,2.8189375780908503,-0.9009906803189214,2.959646080080637,0.9997090101242065,-0.015029659494757652,-0.01886731944978237,-0.0002836518979165703
0.13303051158522597,-3.2802286162004073,-3.3427028408363766,-12.591351619800108,0.05018717382903265,-0.015978736476318495,1.0190591377220084,-1.7201024293899536,-2.1674137115478516,2.173320412524049e-09,2.8191094877381504,-0.8972307349150803,2.9586656067874904,0.9997084736824036,-0.015007478184998035,-0.01891099475324154,-0.0002838890941347927
0.13353062629043358,-3.236153484625297,-3.3372863452935464,-12.584150679006388,0.05019464584146068,-0.01591514119323631,1.0191712410719642,-1.717534065246582,-2.172391891479492,1.9407857543285445e-09,2.819221718680424,-0.893561975903079,2.957660302669122,0.9997079968452454,-0.014985059387981892,-0.018954433500766754,-0.0002841162495315075
0.13403074099564122,-3.1915490185837854,-3.3319740278432195,-12.576681134372976,0.05020102635002274,-0.015853117315791462,1.0192833824242962,-1.7149388790130615,-2.1773433685302734,1.4002274895119626e-09,2.8192725415954873,-0.889982234329936,2.956627492655852,0.9997075200080872,-0.014962405897676945,-0.018997635692358017,-0.00028433348052203655
0.13453085570084883,-3.1464145791343783,-3.326770424285444,-12.56894146173303,0.05020628817503684,-0.015792626841824888,1.0193956313138535,-1.712316870689392,-2.182267189025879,5.490370935667954e-10,2.819260263295085,-0.8864892891974047,2.955564538402898,0.999707043170929,-0.014939519576728344,-0.019040599465370178,-0.0002845407580025494
0.13503097040605644,-3.1007495762686634,-3.321680070324493,-12.560930172109904,0.050210404885263356,-0.015733630858311493,1.0195080591521963,-1.709668755531311,-2.187163829803467,2.723063108334145e-09,2.819183228122827,-0.8830808685970057,2.9544688397850716,0.9997065663337708,-0.014916403219103813,-0.019083324819803238,-0.00028473808197304606
0.13553108511126405,-3.054553466249659,-3.3167074982017812,-12.55264581549838,0.050213350818940745,-0.01567608956184727,1.0196207391815069,-1.7069941759109497,-2.192033052444458,1.249635062094967e-09,2.819039819285237,-0.8797546509030438,2.953337836314751,0.9997060894966125,-0.014893059618771076,-0.019125809893012047,-0.00028492556884884834
0.13603119981647166,-3.007825748878933,-3.311857233331932,-12.544086984677586,0.05021510110347017,-0.015619962280161043,1.0197337464264984,-1.7042943239212036,-2.1968748569488525,5.575718109440686e-09,2.8188284601156517,-0.876508266024153,2.9521690084846193,0.9997057318687439,-0.014869492501020432,-0.019168054684996605,-0.0002851031022146344
0.1365313145216793,-2.9605659646949247,-3.307133790943999,-12.535252319052654,0.05021563167374897,-0.01556520749465495,1.0198471576443158,-1.701568365097046,-2.201688289642334,1.3374683305311663e-10,2.8185476152709645,-0.873339296713849,2.950959879036948,0.9997052550315857,-0.01484570000320673,-0.019210055470466614,-0.0002852707984857261
0.1370314292268869,-2.9127736921049636,-3.302541672730032,-12.52614050852194,0.050214919289154496,-0.015511782863976342,1.0199610512724882,-1.6988170146942139,-2.2064738273620605,1.0491448820815208e-09,2.8181957918610885,-0.8702452799404395,2.949708014161116,0.9997047781944275,-0.01482168585062027,-0.019251812249422073,-0.00028542857035063207
0.13753154393209452,-2.8644485444536802,-3.298085363502933,-12.516750297366565,0.05021294154918218,-0.015459645248621767,1.0200755073749261,-1.6960407495498657,-2.2112314701080322,1.648229330797335e-09,2.8177715405113473,-0.867223708316582,2.948411024621392,0.9997043013572693,-0.014797452837228775,-0.019293325021862984,-0.00028557650512084365
0.13803165863730213,-2.8155901670305594,-3.293769327865721,-12.5070804881593,0.0502096769077435,-0.015408750736572127,1.0201906075860205,-1.693239688873291,-2.215961217880249,1.3600540693659013e-09,2.8172734563578623,-0.8642720315886309,2.9470665668169027,0.9997039437294006,-0.014773002825677395,-0.019334593787789345,-0.0002857145736925304
0.13853177334250977,-2.766198234019547,-3.289598006894177,-12.497129945689444,0.05020510468613236,-0.015359054669956518,1.0203064350528552,-1.690413475036621,-2.2206623554229736,2.7006674674368014e-09,2.816700179976326,-0.8613876581858649,2.9456723437760064,0.9997035264968872,-0.014748334884643555,-0.01937561295926571,-0.00028584274696186185
0.13903188804771738,-2.7162724453937335,-3.2855758148349117,-12.486897600900702,0.05019920508466882,-0.015310511672740158,1.0204230743755787,-1.6875622272491455,-2.225334405899048,9.527770794548474e-10,2.816050398244398,-0.8585679568295284,2.944226106087188,0.9997029900550842,-0.014723450876772404,-0.019416382536292076,-0.00028596108313649893
0.139532002752925,-2.665812523758274,-3.281707135820813,-12.476382454838713,0.050191959193032896,-0.015263075679430211,1.020540611545959,-1.6846868991851807,-2.229978561401367,1.6471609631807382e-09,2.815322845138297,-0.8558102582015442,2.9427256527688446,0.9997025728225708,-0.01469835452735424,-0.019456904381513596,-0.0002860695531126112
0.1400321174581326,-2.614818211144786,-3.277996320605919,-12.465583582605118,0.05018334899930159,-0.015216699964791332,1.0206591338841737,-1.6817876100540161,-2.2345943450927734,1.4423736649504804e-09,2.814516302464009,-0.8531118566726158,2.9411688320802414,0.9997022747993469,-0.014673048630356789,-0.019497176632285118,-0.0002861682150978595
0.1405322321633402,-2.563289265760643,-3.274447683321645,-12.454500137314792,0.050173357397704746,-0.015171337174560954,1.0207787299738555,-1.6788634061813354,-2.239179849624634,2.055676073808854e-09,2.8136296005238224,-0.8504700120893415,2.939553542276097,0.999701738357544,-0.0146475275978446,-0.019537191838026047,-0.0002862569235730916
0.14103234686854785,-2.511225458696655,-3.2710654982563696,-12.443131354053056,0.05016196819511743,-0.015126939357152308,1.0208994895954544,-1.6759159564971924,-2.2437374591827393,4.527738628468114e-09,2.812661618718815,-0.8478819516198182,2.937877732307226,0.9997014403343201,-0.014621800743043423,-0.01957695744931698,-0.00028633582405745983
0.14153246157375546,-2.4586265705967403,-3.267853996660342,-12.43147655382943,0.05014916611630737,-0.015083457996331416,1.021021503657941,-1.6729439496994019,-2.248265027999878,5.686135451377083e-10,2.8116112860881124,-0.8453448716571194,2.9361394024697454,0.9997010231018066,-0.014595862478017807,-0.019616464152932167,-0.00028640482923947275
0.14203257627896307,-2.40549238829333,-3.264817363577872,-12.419535147524568,0.05013493680795907,-0.015040844044852137,1.0211448641289167,-1.6699482202529907,-2.252763032913208,-3.860507469255481e-10,2.8104775817857552,-0.842855939779874,2.9343366050053636,0.9997006058692932,-0.014569715596735477,-0.019655713811516762,-0.0002864639391191304
0.14253269098417068,-2.3518227014123436,-3.2619597347087836,-12.407306639826889,0.05011926684149615,-0.014999047959031663,1.021269663963155,-1.6669284105300903,-2.2572314739227295,1.6603518560032171e-09,2.8092595354960976,-0.8404122967690859,2.9324674446552956,0.9997001886367798,-0.014543361030519009,-0.019694704562425613,-0.0002865130954887718
0.1430328056893783,-2.297617298951636,-3.2592851933010736,-12.394790633155429,0.050102143714726655,-0.014958019734246727,1.021395997029642,-1.6638853549957275,-2.2616705894470215,2.7909590194497014e-09,2.807956227788749,-0.8380110586801743,2.9305300791703592,0.9996998906135559,-0.014516801573336124,-0.019733436405658722,-0.00028655235655605793
0.14353292039458593,-2.2428759658369954,-3.256797767076769,-12.381986831565268,0.05008355585233682,-0.014917708941328883,1.021523958037155,-1.6608179807662964,-2.2660789489746094,2.781834318454912e-09,2.8065667904141267,-0.8356493189691053,2.9285227197798074,0.9996994137763977,-0.014490031637251377,-0.01977190375328064,-0.0002865816350094974
0.14403303509979354,-2.187598479459789,-3.2545014251929283,-12.368895044631923,0.05006349260526062,-0.014878064763835346,1.0216536424584386,-1.6577271223068237,-2.2704575061798096,-1.4848960949720436e-09,2.8050904065407747,-0.8333241506713496,2.9264436316214595,0.999699056148529,-0.01446305587887764,-0.019810110330581665,-0.00028660098905675113
0.14453314980500115,-2.1317846062004766,-3.25240007523976,-12.35551519131102,0.050041944248953404,-0.014839036036169545,1.0217851464530283,-1.6546130180358887,-2.274806022644043,-1.2509437929963951e-12,2.8035263109356396,-0.8310326086322587,2.9242911341356357,0.99969881772995,-0.014435875229537487,-0.0198480524122715,-0.00028661033138632774
0.14503326451020876,-2.0754340979423223,-3.2504975602778616,-12.34184730376942,0.05001890198059984,-0.014800571282524566,1.0219185667887862,-1.6514747142791748,-2.279123544692993,-1.6212645670421466e-09,2.8018737900885644,-0.8287717317873619,2.922063601425401,0.9996984601020813,-0.01440848596394062,-0.019885726273059845,-0.0002866096328943968
0.1455333792154164,-2.018546688579649,-3.24879765591651,-12.327891531184047,0.04999435791528754,-0.014762618756619213,1.0220540007621894,-1.6483125686645508,-2.2834105491638184,-2.5027141470346237e-10,2.8001321822823924,-0.8265385454908925,2.919759462585632,0.9996981024742126,-0.01438088994473219,-0.01992313377559185,-0.0002865989226847887
0.146033493920624,-1.9611220905251299,-3.247304067435021,-12.313648143504405,0.04996830508117864,-0.014725126482196317,1.0221915461174544,-1.6451271772384644,-2.2876665592193604,4.108505979871779e-09,2.798300877609987,-0.8243300638907924,2.9173772020032582,0.999697744846344,-0.014353088103234768,-0.019960273057222366,-0.0002865781425498426
0.14653360862583162,-1.9031599912206096,-3.246020426949129,-12.29911753517476,0.049940737413713555,-0.014688042294249182,1.0223313009645345,-1.6419175863265991,-2.291891098022461,1.4406845716408156e-09,2.7963793179397096,-0.8221432923482438,2.914915359631128,0.9996973872184753,-0.014325078576803207,-0.019997138530015945,-0.00028654729248955846
0.14703372333103923,-1.8446600496560692,-3.2449502906244154,-12.284300228812059,0.04991164974888125,-0.014651313880941865,1.0224733636960723,-1.6386843919754028,-2.2960848808288574,1.756140566300246e-09,2.7943669968307674,-0.819975229899707,2.912372531237748,0.9996970295906067,-0.014296861365437508,-0.020033733919262886,-0.0002865063142962754
0.14753383803624684,-1.7856218929013474,-3.2440971359387074,-12.269196878835258,0.04988103781559264,-0.014614888826185826,1.0226178329033628,-1.6354275941848755,-2.30024790763855,1.1374117203644118e-09,2.7922634594000653,-0.817822871759267,2.909747368635177,0.9996967911720276,-0.014268437400460243,-0.02007005736231804,-0.00028645520796999335
0.14803395274145448,-1.7260451126553291,-3.2434643589954915,-12.2538082750419,0.04984889822719341,-0.01457871465283456,1.0227648072913884,-1.6321464776992798,-2.3043785095214844,7.370299925923973e-10,2.790068302142114,-0.8156832118590066,2.907038579887246,0.9996964335441589,-0.014239802956581116,-0.020106101408600807,-0.00028639385709539056
0.1485340674466621,-1.6659292618173107,-3.243055271890275,-12.238135346127565,0.04981522847215502,-0.014542738866455764,1.0229143855930036,-1.6288411617279053,-2.3084776401519775,4.691821597901935e-09,2.787781172703685,-0.8135532454249691,2.904244929500179,0.9996961355209351,-0.014210958033800125,-0.02014186978340149,-0.00028632223256863654
0.1490341821518697,-1.6052738510853102,-3.2428731001319138,-12.222179163143863,0.04978002690398189,-0.014506908999638789,1.0230666664823291,-1.625511884689331,-2.312544822692871,1.6098524735497222e-09,2.7854017696148734,-0.8114299715861637,2.9013652385976303,0.9996958374977112,-0.014181901700794697,-0.020177360624074936,-0.0002862403925973922
0.1495342968570773,-1.5440783455861056,-3.24292098012082,-12.205940942890498,0.04974329273037554,-0.01447117265679377,1.0232217484874275,-1.6221580505371094,-2.316579818725586,1.499293578177685e-09,2.782929841978374,-0.8093103960139585,2.8983983850820705,0.9996955394744873,-0.01415263395756483,-0.02021257020533085,-0.0002861482207663357
0.15003441156228492,-1.4823421615418018,-3.2432019566860544,-12.189422051236697,0.049705026001695005,-0.01443547755939699,1.0233797299023297,-1.6187797784805298,-2.320582628250122,1.0203029532362962e-09,2.780365189118682,-0.8071915335890679,2.8953433037842857,0.9996952414512634,-0.014123152010142803,-0.020247500389814377,-0.00028604568797163665
0.15053452626749256,-1.4200646629777425,-3.2437189806832696,-12.172624006367611,0.04966522759875559,-0.014399771591635503,1.023540708698491,-1.6153769493103027,-2.3245530128479004,1.6977855232802597e-10,2.777707660193077,-0.8050704110932354,2.892198986602735,0.9996949434280396,-0.014093455858528614,-0.020282145589590073,-0.00028593273600563407
0.15103464097270017,-1.357245158476612,-3.2444749066553675,-12.155548481950772,0.04962389922000689,-0.01436400284640282,1.0237047824357317,-1.6119492053985596,-2.328490734100342,2.2834392154891248e-09,2.77495715376625,-0.8029440699226316,2.888964482634344,0.9996946454048157,-0.01406354270875454,-0.020316507667303085,-0.0002858093357644975
0.15153475567790778,-1.2938828979835242,-3.2454724905579186,-12.138197310217878,0.049581043368132384,-0.014328119671595712,1.0238720481727643,-1.6084963083267212,-2.3323960304260254,4.0203791407122935e-09,2.772113617350372,-0.8008095688198246,2.8856388982981622,0.9996943473815918,-0.014033411629498005,-0.020350584760308266,-0.0002856754290405661
0.1520348703831154,-1.2299770696669499,-3.2467143875511506,-12.120572484957071,0.04953666333611348,-0.014292070716661541,1.0240426023773477,-1.605018973350525,-2.336268663406372,1.4768323230995861e-09,2.7691770469126142,-0.7986639866211712,2.8822213974533217,0.9996941685676575,-0.014003063552081585,-0.020384376868605614,-0.00028553104493767023
0.15253498508832303,-1.1655267968402643,-3.248203149860479,-12.10267616441087,0.04949076319279982,-0.0142558049793436,1.0242165408361734,-1.6015156507492065,-2.3401076793670654,2.4540887100243935e-09,2.766147486351916,-0.7965044250162918,2.878711201512399,0.9996938705444336,-0.013972491957247257,-0.02041787840425968,-0.00028537597972899675
0.15303509979353064,-1.1005311349487013,-3.24994122470742,-12.084510674074574,0.04944334776803003,-0.014219271852571118,1.0243939585645434,-1.5979866981506348,-2.3439135551452637,-2.241114405165945e-09,2.7630250269470227,-0.794328011316264,2.875107589551363,0.9996936321258545,-0.013941695913672447,-0.02045108936727047,-0.0002852102625183761
0.15353521449873825,-1.0349890686264394,-3.2519309523127524,-12.06607850939033,0.04939442263734581,-0.014182421171439832,1.0245749497159198,-1.594431757926941,-2.3476860523223877,-6.483563685932836e-10,2.7598098067777355,-0.7921319012270746,2.8714098984170437,0.9996933937072754,-0.01391067449003458,-0.020484009757637978,-0.0002850337768904865
0.15403532920394586,-0.9688995088285297,-3.254174563973793,-12.047382338331579,0.04934399410634285,-0.014145203260227194,1.024759607491426,-1.5908509492874146,-2.3514249324798584,5.568265848410192e-10,2.7565020101213125,-0.789913281624764,2.867617522832934,0.9996931552886963,-0.013879425823688507,-0.020516637712717056,-0.0002848465519491583
0.15453544390915347,-0.9022612900423064,-3.2566741802175554,-12.028425003872906,0.04929206919470256,-0.014107568979386255,1.024948024049376,-1.5872437953948975,-2.355130434036255,1.3704753998311503e-09,2.7531018668260567,-0.7876693733286609,2.863729915504047,0.9996929168701172,-0.013847947120666504,-0.020548973232507706,-0.00028464850038290024
0.1550355586143611,-0.8350731675828577,-3.2594318090315886,-12.009209526340019,0.049238655619947565,-0.014069469772461072,1.0251402904149067,-1.5836098194122314,-2.35880184173584,1.787595627078531e-09,2.7496096516640236,-0.7853974338690289,2.8597465872213648,0.9996926784515381,-0.013816235587000847,-0.020581012591719627,-0.00028443950577639043
0.15553567331956872,-0.7673338149770833,-3.262449344174248,-11.989739105634673,0.04918376178096567,-0.014030857712865425,1.0253364963897973,-1.579948902130127,-2.3624398708343506,5.146203019279483e-09,2.746025683664916,-0.7830947602453621,2.8556671069663415,0.999692440032959,-0.013784289360046387,-0.02061275765299797,-0.00028421959723345935
0.15603578802477633,-0.6990418214407739,-3.2657285635660784,-11.970017123329404,0.049127396741345204,-0.0139916855504668,1.0255367304625511,-1.5762611627578735,-2.36604380607605,8.848698440644398e-10,2.7423503254331307,-0.7807586916715594,2.8514911020157268,0.9996923208236694,-0.013752107508480549,-0.020644206553697586,-0.0002839887165464461
0.15653590272998394,-0.6301956894530704,-3.2692711277639677,-11.950047144626609,0.04906957021256498,-0.01395190675791632,1.0257410797188184,-1.5725455284118652,-2.3696129322052,1.0311031195531228e-10,2.7385839824499585,-0.7783866123041272,2.8472182580468757,0.9996920824050903,-0.013719683513045311,-0.020675353705883026,-0.0002837466890923679
0.15703601743519155,-0.5607938324325699,-3.2730785785197107,-11.929832920177065,0.04901029253708285,-0.013911475576665326,1.0259496297522401,-1.568801999092102,-2.373147964477539,3.1306848780054963e-10,2.734727102362984,-0.7759759539495389,2.8428483192436027,0.999691903591156,-0.013687017373740673,-0.02070620283484459,-0.0002834934857673943
0.1575361321403992,-0.4908345725192521,-3.277152337424502,-11.909378387752303,0.04894957467136523,-0.013870347062609052,1.026162464575792,-1.5650304555892944,-2.376648426055908,3.4533729209584862e-09,2.73078017426465,-0.7735241987468576,2.8383810884024556,0.9996917247772217,-0.013654104433953762,-0.020736750215291977,-0.0002832290483638644
0.1580362468456068,-0.42031613846628607,-3.2814937046408947,-11.888687673765931,0.048887428168899974,-0.013828477131297532,1.026379666533707,-1.5612300634384155,-2.3801145553588867,2.846459290495318e-09,2.726743727961971,-0.7710288818217044,2.8338164270391957,0.9996915459632874,-0.013620942831039429,-0.02076699770987034,-0.0002829533477779478
0.1585363615508144,-0.3492366636456872,-3.286103857723672,-11.867765094638536,0.048823865163234934,-0.013785822602653779,1.02660131621406,-1.5574009418487549,-2.3835458755493164,-1.5114843820995816e-09,2.722618333239382,-0.7684875939076297,2.829154255495106,0.999691367149353,-0.013587528839707375,-0.020796941593289375,-0.000282666296698153
0.15903647625602202,-0.27759418417165094,-3.2909838505310227,-11.846615158001093,0.04875889835108373,-0.013742341245139504,1.0268274923620768,-1.5535423755645752,-2.3869423866271973,3.8751030162487154e-10,2.7184045991167065,-0.7658979839309784,2.8243945530427315,0.9996911883354187,-0.013553859665989876,-0.020826581865549088,-0.00028236774960532784
0.15953659096122966,-0.20538663714527505,-3.296134612227355,-11.825242563731841,0.0486925409755391,-0.013697991819308596,1.0270582717942698,-1.549654245376587,-2.3903040885925293,1.8678982804942734e-09,2.714103173104105,-0.7632577615552937,2.819537357990348,0.9996910095214844,-0.013519931584596634,-0.020855918526649475,-0.0002820577356033027
0.16003670566643727,-0.13261185902424596,-3.3015569463790113,-11.803652204821496,0.0486248068094347,-0.013652734120688959,1.0272937293134587,-1.54573655128479,-2.3936309814453125,2.4108257612454054e-09,2.709714740455992,-0.7605646996813616,2.8145827677845516,0.9996909499168396,-0.013485743664205074,-0.02088494971394539,-0.0002817361382767558
0.16053682037164488,-0.05926758412090972,-3.307251530144061,-11.781849168061958,0.04855571013889435,-0.013606529021933437,1.0275339376247636,-1.5417877435684204,-2.3969221115112305,-2.9290467273845877e-10,2.7052400234257625,-0.7578166368989881,2.8095309391100933,0.9996907711029053,-0.0134512884542346,-0.02091367356479168,-0.00028140287031419575
0.1610369350768525,0.014648556767972174,-3.3132189135572956,-11.75983873455355,0.04848526574710749,-0.013559338514181556,1.0277789672526403,-1.5378084182739258,-2.4001781940460205,1.3259989772862468e-09,2.700679780523191,-0.7550114798866638,2.8043820879860846,0.9996906518936157,-0.013416564092040062,-0.020942090079188347,-0.0002810578153003007
0.1615370497820601,0.08913903759668179,-3.31945951891145,-11.737626380026104,0.04841348889836865,-0.013511125747573658,1.0280288864590441,-1.5337976217269897,-2.4033994674682617,-8.198460244024375e-10,2.6960348057763133,-0.7521472057552644,2.799136489857521,0.9996905326843262,-0.013381566852331161,-0.02097019925713539,-0.00028070100233890116
0.16203716448726774,0.16420643816823954,-3.3259736402355857,-11.715217774969203,0.048340395322417753,-0.013461855070860397,1.0282837611627795,-1.5297553539276123,-2.4065847396850586,-6.115438017095798e-11,2.6913059279996085,-0.749221864332042,2.7937944796810674,0.9996904134750366,-0.013346293941140175,-0.020997999235987663,-0.00028033225680701435
0.16253727919247535,0.23985344509154388,-3.3327614428715044,-11.692618784567145,0.048266001199117115,-0.013411492070051134,1.0285436548601354,-1.5256807804107666,-2.4097347259521484,2.635996976252386e-10,2.686494010070154,-0.746233580381165,2.7883564520038697,0.9996902942657471,-0.013310741633176804,-0.021025490015745163,-0.00027995157870464027
0.16303739389768296,0.31608285259535984,-3.339822963148932,-11.669835468434096,0.04819032314349988,-0.013360003606045518,1.0288086285468547,-1.5215739011764526,-2.412849187850952,1.4771864287332903e-10,2.6815999482135267,-0.7431805557571695,2.7828228610341776,0.9996901750564575,-0.0132749043405056,-0.02105266973376274,-0.0002795587934087962
0.16353750860289057,0.3928975631966737,-3.34715810816016,-11.646874080145436,0.048113378191223403,-0.013307357851193975,1.029078740641526,-1.5174341201782227,-2.415928363800049,2.450002867249168e-09,2.6766246713010315,-0.740061071487741,2.777194220702408,0.9996901750564575,-0.01323878113180399,-0.021079540252685547,-0.0002791539009194821
0.16403762330809818,0.4703005882211917,-3.3547666556347076,-11.623741066561106,0.04803518378446029,-0.013253524324733403,1.0293540469104647,-1.5132606029510498,-2.418971300125122,4.790949414967827e-09,2.6715691401599035,-0.7368734897823189,2.771471104711286,0.999690055847168,-0.013202364556491375,-0.02110609970986843,-0.0002787367848213762
0.16453773801330582,0.548295048173851,-3.362648253914478,-11.600443066937089,0.04795575775825785,-0.01319847392704615,1.0296346003941486,-1.509053349494934,-2.421978712081909,1.4431031924999616e-09,2.666434346898,-0.733616255963131,2.765654146573603,0.9996899962425232,-0.013165652751922607,-0.021132346242666245,-0.00027830738690681756
0.16503785271851343,0.6268841729574907,-3.3708024220297728,-11.57698691182136,0.0478751183273964,-0.013142178972690996,1.029920451335291,-1.5048115253448486,-2.424950122833252,9.875360529321142e-10,2.6612213142444667,-0.7302879003153154,2.759744039636095,0.9996899366378784,-0.013128641061484814,-0.021158279851078987,-0.0002778656198643148
0.16553796742372104,0.7060713019379398,-3.379228549876402,-11.55337962173082,0.04779328407377444,-0.013084613222156908,1.0302116471086014,-1.5005351305007935,-2.4278860092163086,8.182363814279725e-11,2.655931094907832,-0.7268870398529556,2.753741537087932,0.9996898770332336,-0.013091325759887695,-0.02118390053510666,-0.0002774113672785461
0.16603808212892865,0.7858598838540457,-3.387925898494069,-11.529628405605955,0.047710273934348145,-0.01302575191229145,1.030508232152309,-1.4962232112884521,-2.430785894393921,2.062728210461273e-09,2.650564770952868,-0.7234123799979084,2.7476474519522696,0.9996898174285889,-0.01305370219051838,-0.02120921015739441,-0.000276944600045681
0.1665381968341363,0.8662534765713099,-3.396893600446011,-11.50574065904014,0.0476261071896511,-0.01296557178535753,1.0308102479015222,-1.491875410079956,-2.4336495399475098,2.5077695475772543e-10,2.6451234531975416,-0.7198627161684634,2.74146265705927,0.9996897578239441,-0.013015766628086567,-0.02123420499265194,-0.00027646523085422814
0.1670383115393439,0.947255746678043,-3.406130660299838,-11.48172396228091,0.047540803452918105,-0.01290405111667396,1.0311177327234702,-1.487491488456726,-2.4364774227142334,4.654721053043431e-09,2.6396082806312786,-0.7162369352750003,2.7351880849990557,0.9996896982192993,-0.012977514415979385,-0.0212588869035244,-0.00027597311418503523
0.1675384262445515,1.028870468923134,-3.415635955209346,-11.457586078000565,0.04745438265983587,-0.012841169740796967,1.0314307218547014,-1.483070969581604,-2.43927001953125,1.4947268978104944e-09,2.634020419855697,-0.7125340171199288,2.72882472805299,0.9996897578239441,-0.01293894276022911,-0.021283255890011787,-0.0002754682791419327
0.16803854094975912,1.1111015254947287,-3.425408235596963,-11.4333349488339,0.04736686505894238,-0.012776909076201914,1.0317492473402972,-1.4786128997802734,-2.442025899887085,-2.384313302350449e-10,2.628361064548956,-0.7087530356993644,2.722373638101759,0.9996897578239441,-0.012900044210255146,-0.021307308226823807,-0.00027495052199810743
0.16853865565496673,1.193952905139361,-3.4354461259363966,-11.408978694681194,0.04727827120269335,-0.012711252148426314,1.0320733379751588,-1.4741170406341553,-2.4447457790374756,9.056453920130991e-10,2.622631434954644,-0.7048931604041259,2.71583592650867,0.9996897578239441,-0.012860815972089767,-0.021331047639250755,-0.0002744198136497289
0.16903877036017437,1.2774287021212303,-3.4457481256348483,-11.384525609774675,0.04718862193921474,-0.012644183611637414,1.0324030192474185,-1.4695827960968018,-2.4474294185638428,4.9228314757954195e-09,2.616832777396266,-0.7009536571178149,2.709212763976717,0.9996897578239441,-0.012821253389120102,-0.021354472264647484,-0.0002738760376814753
0.16953888506538198,1.3615331150215852,-3.4563126100141193,-11.359984159507258,0.04709793840475672,-0.012575689768589873,1.0327383132840449,-1.4650098085403442,-2.4500772953033447,-1.5392735974728566e-09,2.6109663638180796,-0.6969338892098859,2.7025053803778696,0.9996897578239441,-0.012781351804733276,-0.021377582103013992,-0.0002733191940933466
0.1700389997705896,1.446270445378329,-3.467137831389725,-11.335362977022477,0.047006242016864076,-0.01250575858894112,1.0330792387986834,-1.4603972434997559,-2.452688694000244,-1.7953548647753337e-09,2.605033491353149,-0.692833318421803,2.6957150645532177,0.9996897578239441,-0.012741107493638992,-0.02140037715435028,-0.00027274913736619055
0.1705391144757972,1.5316450961662393,-3.478221920247035,-11.310670859565086,0.04691355446827526,-0.012434379725894847,1.0334258110417855,-1.4557454586029053,-2.4552648067474365,-2.9058329076292466e-09,2.5990354819192656,-0.6886515056445613,2.6888431640825807,0.9996898770332336,-0.0127005185931921,-0.0214228592813015,-0.0002721658383961767
0.1710392291810048,1.6176615701183248,-3.4895628865133124,-11.285916764591827,0.046819897721561546,-0.012361544531144965,1.0337780417530875,-1.4510526657104492,-2.4578042030334473,1.09127173963941e-09,2.592973681843368,-0.6843881115860145,2.6818910850222677,0.9996898174285889,-0.012659573927521706,-0.021445024758577347,-0.00027156909345649183
0.17153934388621245,1.704324467889111,-3.5011586209244157,-11.261109805642606,0.04672529400451453,-0.012287246068095276,1.0341359391164673,-1.4463194608688354,-2.4603075981140137,-2.4380688579128673e-09,2.586849461514983,-0.6800428973266648,2.674860291609779,0.9996898770332336,-0.012618274427950382,-0.021466877311468124,-0.0002709589898586273
0.17203945859142006,1.7916384860607764,-3.5130068964847347,-11.236259247972374,0.046629765806290115,-0.012211479123332298,1.0344995077172463,-1.4415446519851685,-2.462775230407715,2.348667094143053e-10,2.5806642150691332,-0.6756157247627269,2.6677523059342723,0.9996899366378784,-0.012576614506542683,-0.021488415077328682,-0.00027033532387576997
0.17253957329662767,1.8796084149933752,-3.5251053700188955,-11.21137450394443,0.046533335874313395,-0.012134240216331362,1.0348687485019636,-1.4367281198501587,-2.4652066230773926,-9.040369564061734e-10,2.5744193600990504,-0.6711065569355004,2.6605687075717412,0.9996899962425232,-0.012534589506685734,-0.02150963805615902,-0.0002696980955079198
0.17303968800183528,1.9682391365204375,-3.537451583813532,-11.186465128186505,0.04643602721194859,-0.012055527607378673,1.0352436587406815,-1.431869387626648,-2.4676027297973633,4.770870365433666e-10,2.5681163373989513,-0.6665154582462514,2.6533111331839003,0.9996901750564575,-0.012492195703089237,-0.021530549973249435,-0.00026904718833975494
0.17353980270704292,2.0575356214915903,-3.5500429673473715,-11.161540812510896,0.046337863076934965,-0.011975341303694834,1.0356242319918365,-1.4269675016403198,-2.4699621200561523,-1.6096580734981103e-09,2.5617566107370746,-0.661842594556046,2.645981276079958,0.9996902346611023,-0.01244942657649517,-0.021551145240664482,-0.0002683825441636145
