Time,Sensor 11 Acc.ACCX11,Sensor 11 Acc.ACCY11,Sensor 11 Acc.ACCZ11,Sensor 11 Gyro.GYROX11,Sensor 11 Gyro.GYROY11,Sensor 11 Gyro.GYROZ11,Sensor 11 Mag.MAGX11,Sensor 11 Mag.MAGY11,Sensor 11 Mag.MAGZ11,Sensor 12 Acc.ACCX12,Sensor 12 Acc.ACCY12,Sensor 12 Acc.ACCZ12,Sensor 12 Gyro.GYROX12,Sensor 12 Gyro.GYROY12,Sensor 12 Gyro.GYROZ12,Sensor 12 Mag.MAGX12,Sensor 12 Mag.MAGY12,Sensor 12 Mag.MAGZ12
0.000000,-0.750033,-8.403500,9.004974,1.161539,0.321649,0.249122,0.000000,0.000000,0.000000,-3.318599,-7.873340,7.119888,0.740617,0.251925,0.313174,0.000000,0.000000,0.000000
0.001000,-0.752137,-8.409747,9.003605,1.155921,0.317053,0.253524,0.000000,0.000000,0.000000,-3.283395,-7.886850,7.127777,0.744013,0.247263,0.309964,0.000000,0.000000,0.000000
0.001000,-0.754241,-8.415995,9.002235,1.150302,0.312457,0.257927,0.000000,0.000000,0.000000,-3.248192,-7.900360,7.135665,0.747410,0.242602,0.306753,0.000000,0.000000,0.000000
0.002000,-0.756344,-8.422242,9.000865,1.144683,0.307861,0.262330,0.000000,0.000000,0.000000,-3.212989,-7.913870,7.143554,0.750806,0.237940,0.303542,0.000000,0.000000,0.000000
0.002000,-0.758448,-8.428490,8.999496,1.139064,0.303264,0.266733,0.000000,0.000000,0.000000,-3.177785,-7.927381,7.151443,0.754202,0.233278,0.300332,0.000000,0.000000,0.000000
0.003000,-0.760551,-8.434738,8.998126,1.133445,0.298668,0.271136,0.000000,0.000000,0.000000,-3.142582,-7.940891,7.159331,0.757598,0.228616,0.297121,0.000000,0.000000,0.000000
0.003000,-0.762655,-8.440986,8.996757,1.127826,0.294072,0.275539,0.000000,0.000000,0.000000,-3.107379,-7.954401,7.167220,0.760994,0.223954,0.293910,0.000000,0.000000,0.000000
0.004000,-0.764758,-8.447233,8.995387,1.122208,0.289476,0.279942,0.000000,0.000000,0.000000,-3.072176,-7.967912,7.175109,0.764390,0.219292,0.290699,0.000000,0.000000,0.000000
0.004000,-0.766862,-8.453481,8.994018,1.116589,0.284880,0.284345,0.000000,0.000000,0.000000,-3.036972,-7.981422,7.182998,0.767786,0.214630,0.287489,0.000000,0.000000,0.000000
0.004000,-0.768966,-8.459728,8.992648,1.110970,0.280284,0.288748,0.000000,0.000000,0.000000,-3.001769,-7.994933,7.190886,0.771183,0.209968,0.284278,0.000000,0.000000,0.000000
0.005000,-0.771069,-8.465976,8.991278,1.105351,0.275687,0.293150,0.000000,0.000000,0.000000,-2.966566,-8.008443,7.198775,0.774579,0.205306,0.281067,0.000000,0.000000,0.000000
0.005000,-0.773173,-8.472224,8.989908,1.099732,0.271091,0.297553,0.000000,0.000000,0.000000,-2.931362,-8.021954,7.206664,0.777975,0.200644,0.277857,0.000000,0.000000,0.000000
0.006000,-0.775276,-8.478472,8.988539,1.094113,0.266495,0.301956,0.000000,0.000000,0.000000,-2.896159,-8.035463,7.214552,0.781371,0.195982,0.274646,0.000000,0.000000,0.000000
0.006000,-0.777380,-8.484719,8.987169,1.088494,0.261899,0.306359,0.000000,0.000000,0.000000,-2.860956,-8.048974,7.222441,0.784767,0.191320,0.271435,0.000000,0.000000,0.000000
0.007000,-0.778883,-8.484488,8.986877,1.082648,0.250468,0.308286,0.000000,0.000000,0.000000,-2.854676,-8.046506,7.194904,0.782184,0.186861,0.259193,0.000000,0.000000,0.000000
0.007000,-0.780386,-8.484256,8.986586,1.076801,0.239036,0.310212,0.000000,0.000000,0.000000,-2.848396,-8.044038,7.167367,0.779601,0.182402,0.246950,0.000000,0.000000,0.000000
0.008000,-0.781890,-8.484024,8.986295,1.070954,0.227605,0.312138,0.000000,0.000000,0.000000,-2.842116,-8.041571,7.139830,0.777018,0.177943,0.234708,0.000000,0.000000,0.000000
0.009000,-0.783393,-8.483792,8.986003,1.065107,0.216174,0.314065,0.000000,0.000000,0.000000,-2.835836,-8.039103,7.112293,0.774434,0.173483,0.222466,0.000000,0.000000,0.000000
0.009000,-0.784896,-8.483560,8.985711,1.059260,0.204742,0.315991,0.000000,0.000000,0.000000,-2.829556,-8.036634,7.084756,0.771851,0.169024,0.210223,0.000000,0.000000,0.000000
0.009000,-0.786399,-8.483328,8.985419,1.053414,0.193311,0.317917,0.000000,0.000000,0.000000,-2.823277,-8.034166,7.057219,0.769268,0.164565,0.197981,0.000000,0.000000,0.000000
0.010000,-0.787902,-8.483096,8.985128,1.047567,0.181880,0.319844,0.000000,0.000000,0.000000,-2.816997,-8.031699,7.029682,0.766685,0.160106,0.185738,0.000000,0.000000,0.000000
0.011000,-0.789405,-8.482864,8.984837,1.041720,0.170449,0.321770,0.000000,0.000000,0.000000,-2.810717,-8.029231,7.002145,0.764102,0.155647,0.173496,0.000000,0.000000,0.000000
0.011000,-0.790909,-8.482633,8.984545,1.035873,0.159017,0.323697,0.000000,0.000000,0.000000,-2.804437,-8.026763,6.974607,0.761519,0.151187,0.161254,0.000000,0.000000,0.000000
0.011000,-0.792412,-8.482401,8.984253,1.030026,0.147586,0.325623,0.000000,0.000000,0.000000,-2.798157,-8.024295,6.947071,0.758935,0.146728,0.149011,0.000000,0.000000,0.000000
0.012000,-0.793915,-8.482169,8.983961,1.024179,0.136155,0.327549,0.000000,0.000000,0.000000,-2.791878,-8.021827,6.919534,0.756352,0.142269,0.136769,0.000000,0.000000,0.000000
0.013000,-0.795418,-8.481937,8.983670,1.018332,0.124723,0.329476,0.000000,0.000000,0.000000,-2.785598,-8.019360,6.891996,0.753769,0.137810,0.124527,0.000000,0.000000,0.000000
0.013000,-0.796921,-8.481706,8.983378,1.012486,0.113292,0.331402,0.000000,0.000000,0.000000,-2.779318,-8.016891,6.864460,0.751186,0.133351,0.112284,0.000000,0.000000,0.000000
0.013000,-0.796031,-8.482347,8.985635,1.007158,0.101097,0.331974,0.000000,0.000000,0.000000,-2.783272,-8.000302,6.848095,0.743466,0.131264,0.101789,0.000000,0.000000,0.000000
0.014000,-0.792749,-8.483865,8.990439,1.002350,0.088139,0.331191,0.000000,0.000000,0.000000,-2.797460,-7.969591,6.842904,0.730608,0.131549,0.093042,0.000000,0.000000,0.000000
0.015000,-0.789465,-8.485382,8.995243,0.997542,0.075181,0.330408,0.000000,0.000000,0.000000,-2.811647,-7.938880,6.837713,0.717751,0.131835,0.084294,0.000000,0.000000,0.000000
0.015000,-0.786182,-8.486899,9.000048,0.992734,0.062223,0.329625,0.000000,0.000000,0.000000,-2.825835,-7.908169,6.832521,0.704894,0.132121,0.075547,0.000000,0.000000,0.000000
0.015000,-0.782899,-8.488417,9.004852,0.987926,0.049264,0.328843,0.000000,0.000000,0.000000,-2.840023,-7.877458,6.827330,0.692036,0.132406,0.066799,0.000000,0.000000,0.000000
0.016000,-0.779616,-8.489933,9.009657,0.983118,0.036306,0.328060,0.000000,0.000000,0.000000,-2.854211,-7.846747,6.822139,0.679179,0.132692,0.058052,0.000000,0.000000,0.000000
0.017000,-0.776333,-8.491450,9.014462,0.978310,0.023348,0.327277,0.000000,0.000000,0.000000,-2.868399,-7.816036,6.816948,0.666322,0.132978,0.049305,0.000000,0.000000,0.000000
0.017000,-0.773050,-8.492968,9.019265,0.973502,0.010390,0.326494,0.000000,0.000000,0.000000,-2.882586,-7.785325,6.811757,0.653464,0.133263,0.040557,0.000000,0.000000,0.000000
0.018000,-0.769767,-8.494485,9.024070,0.968694,-0.002569,0.325711,0.000000,0.000000,0.000000,-2.896774,-7.754614,6.806565,0.640607,0.133549,0.031810,0.000000,0.000000,0.000000
0.018000,-0.766484,-8.496002,9.028874,0.963886,-0.015527,0.324928,0.000000,0.000000,0.000000,-2.910962,-7.723903,6.801374,0.627750,0.133835,0.023062,0.000000,0.000000,0.000000
0.018000,-0.763201,-8.497519,9.033679,0.959078,-0.028485,0.324145,0.000000,0.000000,0.000000,-2.925150,-7.693192,6.796183,0.614892,0.134120,0.014315,0.000000,0.000000,0.000000
0.019000,-0.759918,-8.499036,9.038483,0.954270,-0.041444,0.323363,0.000000,0.000000,0.000000,-2.939337,-7.662480,6.790992,0.602035,0.134406,0.005567,0.000000,0.000000,0.000000
0.019000,-0.756635,-8.500553,9.043287,0.949462,-0.054402,0.322580,0.000000,0.000000,0.000000,-2.953525,-7.631770,6.785800,0.589178,0.134691,-0.003180,0.000000,0.000000,0.000000
0.020000,-0.753352,-8.502070,9.048092,0.944654,-0.067360,0.321797,0.000000,0.000000,0.000000,-2.967713,-7.601058,6.780609,0.576321,0.134977,-0.011928,0.000000,0.000000,0.000000
0.021000,-0.735266,-8.504293,9.045251,0.941750,-0.072351,0.321022,0.000000,0.000000,0.000000,-2.981459,-7.574097,6.795012,0.564739,0.135694,-0.011667,0.000000,0.000000,0.000000
0.021000,-0.717180,-8.506517,9.042411,0.938846,-0.077343,0.320247,0.000000,0.000000,0.000000,-2.995204,-7.547136,6.809414,0.553158,0.136410,-0.011407,0.000000,0.000000,0.000000
0.021000,-0.699093,-8.508740,9.039570,0.935942,-0.082334,0.319472,0.000000,0.000000,0.000000,-3.008950,-7.520175,6.823817,0.541576,0.137127,-0.011146,0.000000,0.000000,0.000000
0.022000,-0.681007,-8.510963,9.036729,0.933038,-0.087325,0.318697,0.000000,0.000000,0.000000,-3.022696,-7.493213,6.838220,0.529995,0.137844,-0.010886,0.000000,0.000000,0.000000
0.022000,-0.662921,-8.513186,9.033888,0.930133,-0.092317,0.317922,0.000000,0.000000,0.000000,-3.036441,-7.466252,6.852623,0.518414,0.138560,-0.010625,0.000000,0.000000,0.000000
0.023000,-0.644834,-8.515410,9.031048,0.927229,-0.097308,0.317147,0.000000,0.000000,0.000000,-3.050187,-7.439291,6.867025,0.506832,0.139277,-0.010365,0.000000,0.000000,0.000000
0.024000,-0.626748,-8.517633,9.028207,0.924325,-0.102299,0.316372,0.000000,0.000000,0.000000,-3.063932,-7.412329,6.881428,0.495251,0.139993,-0.010105,0.000000,0.000000,0.000000
0.024000,-0.608662,-8.519856,9.025366,0.921421,-0.107291,0.315597,0.000000,0.000000,0.000000,-3.077678,-7.385368,6.895831,0.483670,0.140710,-0.009844,0.000000,0.000000,0.000000
0.025000,-0.590575,-8.522079,9.022525,0.918517,-0.112282,0.314822,0.000000,0.000000,0.000000,-3.091424,-7.358407,6.910233,0.472088,0.141427,-0.009584,0.000000,0.000000,0.000000
0.025000,-0.572489,-8.524303,9.019685,0.915613,-0.117273,0.314047,0.000000,0.000000,0.000000,-3.105169,-7.331445,6.924636,0.460507,0.142143,-0.009323,0.000000,0.000000,0.000000
0.025000,-0.554402,-8.526526,9.016844,0.912708,-0.122265,0.313272,0.000000,0.000000,0.000000,-3.118915,-7.304484,6.939039,0.448925,0.142860,-0.009063,0.000000,0.000000,0.000000
0.026000,-0.536316,-8.528749,9.014003,0.909804,-0.127256,0.312497,0.000000,0.000000,0.000000,-3.132660,-7.277523,6.953441,0.437344,0.143577,-0.008802,0.000000,0.000000,0.000000
0.026000,-0.518230,-8.530972,9.011162,0.906900,-0.132247,0.311722,0.000000,0.000000,0.000000,-3.146406,-7.250561,6.967844,0.425763,0.144293,-0.008542,0.000000,0.000000,0.000000
0.027000,-0.505164,-8.528774,9.003952,0.902421,-0.137851,0.310504,0.000000,0.000000,0.000000,-3.157168,-7.236160,6.973864,0.416463,0.143472,-0.005033,0.000000,0.000000,0.000000
0.028000,-0.497118,-8.522155,8.992373,0.896366,-0.144067,0.308843,0.000000,0.000000,0.000000,-3.164947,-7.234319,6.971500,0.409446,0.141112,0.001724,0.000000,0.000000,0.000000
0.028000,-0.489072,-8.515535,8.980794,0.890312,-0.150283,0.307182,0.000000,0.000000,0.000000,-3.172725,-7.232478,6.969137,0.402428,0.138753,0.008481,0.000000,0.000000,0.000000
0.029000,-0.481026,-8.508916,8.969215,0.884258,-0.156499,0.305521,0.000000,0.000000,0.000000,-3.180504,-7.230638,6.966774,0.395410,0.136393,0.015238,0.000000,0.000000,0.000000
0.029000,-0.472980,-8.502296,8.957637,0.878204,-0.162715,0.303860,0.000000,0.000000,0.000000,-3.188283,-7.228796,6.964411,0.388393,0.134034,0.021995,0.000000,0.000000,0.000000
0.029000,-0.464934,-8.495677,8.946057,0.872149,-0.168931,0.302199,0.000000,0.000000,0.000000,-3.196062,-7.226955,6.962048,0.381375,0.131674,0.028752,0.000000,0.000000,0.000000
0.030000,-0.456888,-8.489058,8.934479,0.866095,-0.175147,0.300538,0.000000,0.000000,0.000000,-3.203840,-7.225115,6.959685,0.374357,0.129315,0.035509,0.000000,0.000000,0.000000
0.030000,-0.448843,-8.482438,8.922899,0.860041,-0.181363,0.298877,0.000000,0.000000,0.000000,-3.211619,-7.223274,6.957322,0.367340,0.126955,0.042266,0.000000,0.000000,0.000000
0.031000,-0.440797,-8.475819,8.911321,0.853986,-0.187579,0.297216,0.000000,0.000000,0.000000,-3.219398,-7.221433,6.954958,0.360322,0.124596,0.049022,0.000000,0.000000,0.000000
0.032000,-0.432751,-8.469199,8.899742,0.847932,-0.193795,0.295555,0.000000,0.000000,0.000000,-3.227176,-7.219592,6.952595,0.353304,0.122236,0.055779,0.000000,0.000000,0.000000
0.032000,-0.424705,-8.462580,8.888163,0.841878,-0.200011,0.293895,0.000000,0.000000,0.000000,-3.234955,-7.217751,6.950233,0.346287,0.119877,0.062536,0.000000,0.000000,0.000000
0.033000,-0.416659,-8.455960,8.876584,0.835823,-0.206227,0.292234,0.000000,0.000000,0.000000,-3.242734,-7.215910,6.947869,0.339269,0.117517,0.069293,0.000000,0.000000,0.000000
0.033000,-0.408613,-8.449341,8.865005,0.829769,-0.212443,0.290573,0.000000,0.000000,0.000000,-3.250513,-7.214069,6.945506,0.332251,0.115158,0.076050,0.000000,0.000000,0.000000
0.034000,-0.400567,-8.442721,8.853426,0.823715,-0.218659,0.288912,0.000000,0.000000,0.000000,-3.258291,-7.212228,6.943143,0.325234,0.112799,0.082807,0.000000,0.000000,0.000000
0.034000,-0.399138,-8.428375,8.852359,0.815780,-0.222661,0.287227,0.000000,0.000000,0.000000,-3.265519,-7.229331,6.933152,0.321049,0.110239,0.087307,0.000000,0.000000,0.000000
0.035000,-0.397708,-8.414029,8.851292,0.807845,-0.226663,0.285541,0.000000,0.000000,0.000000,-3.272746,-7.246433,6.923160,0.316864,0.107680,0.091806,0.000000,0.000000,0.000000
0.035000,-0.396279,-8.399683,8.850224,0.799911,-0.230664,0.283856,0.000000,0.000000,0.000000,-3.279974,-7.263535,6.913169,0.312679,0.105121,0.096306,0.000000,0.000000,0.000000
0.035000,-0.394849,-8.385337,8.849157,0.791976,-0.234666,0.282171,0.000000,0.000000,0.000000,-3.287201,-7.280637,6.903177,0.308494,0.102562,0.100805,0.000000,0.000000,0.000000
0.036000,-0.393420,-8.370992,8.848090,0.784041,-0.238668,0.280486,0.000000,0.000000,0.000000,-3.294429,-7.297740,6.893186,0.304309,0.100003,0.105305,0.000000,0.000000,0.000000
0.036000,-0.391990,-8.356646,8.847023,0.776107,-0.242669,0.278801,0.000000,0.000000,0.000000,-3.301656,-7.314842,6.883195,0.300124,0.097444,0.109804,0.000000,0.000000,0.000000
0.037000,-0.390561,-8.342299,8.845956,0.768172,-0.246671,0.277116,0.000000,0.000000,0.000000,-3.308884,-7.331944,6.873203,0.295939,0.094885,0.114304,0.000000,0.000000,0.000000
0.037000,-0.389131,-8.327953,8.844889,0.760237,-0.250673,0.275431,0.000000,0.000000,0.000000,-3.316111,-7.349046,6.863212,0.291754,0.092325,0.118804,0.000000,0.000000,0.000000
0.038000,-0.387702,-8.313607,8.843822,0.752303,-0.254674,0.273745,0.000000,0.000000,0.000000,-3.323339,-7.366148,6.853220,0.287569,0.089766,0.123303,0.000000,0.000000,0.000000
0.038000,-0.386272,-8.299261,8.842754,0.744368,-0.258676,0.272060,0.000000,0.000000,0.000000,-3.330566,-7.383251,6.843229,0.283384,0.087207,0.127803,0.000000,0.000000,0.000000
0.039000,-0.384843,-8.284915,8.841687,0.736433,-0.262678,0.270375,0.000000,0.000000,0.000000,-3.337794,-7.400353,6.833238,0.279199,0.084648,0.132302,0.000000,0.000000,0.000000
0.040000,-0.383413,-8.270569,8.840620,0.728499,-0.266679,0.268690,0.000000,0.000000,0.000000,-3.345021,-7.417455,6.823246,0.275015,0.082089,0.136802,0.000000,0.000000,0.000000
0.040000,-0.381984,-8.256223,8.839553,0.720564,-0.270681,0.267005,0.000000,0.000000,0.000000,-3.352249,-7.434557,6.813255,0.270830,0.079530,0.141301,0.000000,0.000000,0.000000
0.041000,-0.383062,-8.243333,8.833870,0.712826,-0.275146,0.265691,0.000000,0.000000,0.000000,-3.357819,-7.456807,6.805478,0.264486,0.075134,0.146762,0.000000,0.000000,0.000000
0.041000,-0.386647,-8.231898,8.823573,0.705286,-0.280075,0.264748,0.000000,0.000000,0.000000,-3.361731,-7.484202,6.799915,0.255983,0.068900,0.153184,0.000000,0.000000,0.000000
0.042000,-0.390232,-8.220464,8.813276,0.697745,-0.285004,0.263805,0.000000,0.000000,0.000000,-3.365644,-7.511598,6.794352,0.247480,0.062667,0.159607,0.000000,0.000000,0.000000
0.042000,-0.393818,-8.209028,8.802979,0.690205,-0.289932,0.262862,0.000000,0.000000,0.000000,-3.369556,-7.538994,6.788789,0.238977,0.056434,0.166029,0.000000,0.000000,0.000000
0.043000,-0.397403,-8.197594,8.792683,0.682664,-0.294861,0.261919,0.000000,0.000000,0.000000,-3.373468,-7.566390,6.783226,0.230474,0.050201,0.172451,0.000000,0.000000,0.000000
0.043000,-0.400988,-8.186159,8.782386,0.675124,-0.299790,0.260976,0.000000,0.000000,0.000000,-3.377381,-7.593786,6.777663,0.221972,0.043968,0.178873,0.000000,0.000000,0.000000
0.043000,-0.404574,-8.174725,8.772089,0.667583,-0.304719,0.260033,0.000000,0.000000,0.000000,-3.381293,-7.621182,6.772100,0.213469,0.037735,0.185295,0.000000,0.000000,0.000000
0.044000,-0.408159,-8.163290,8.761792,0.660043,-0.309648,0.259091,0.000000,0.000000,0.000000,-3.385206,-7.648578,6.766537,0.204966,0.031502,0.191717,0.000000,0.000000,0.000000
0.044000,-0.411744,-8.151855,8.751495,0.652503,-0.314577,0.258148,0.000000,0.000000,0.000000,-3.389118,-7.675973,6.760974,0.196463,0.025269,0.198140,0.000000,0.000000,0.000000
0.045000,-0.415330,-8.140421,8.741199,0.644962,-0.319505,0.257205,0.000000,0.000000,0.000000,-3.393030,-7.703370,6.755411,0.187960,0.019036,0.204562,0.000000,0.000000,0.000000
0.045000,-0.418915,-8.128985,8.730902,0.637422,-0.324434,0.256262,0.000000,0.000000,0.000000,-3.396943,-7.730765,6.749848,0.179457,0.012803,0.210984,0.000000,0.000000,0.000000
0.046000,-0.422500,-8.117551,8.720605,0.629881,-0.329363,0.255319,0.000000,0.000000,0.000000,-3.400855,-7.758161,6.744285,0.170955,0.006569,0.217406,0.000000,0.000000,0.000000
0.046000,-0.426086,-8.106116,8.710308,0.622341,-0.334292,0.254376,0.000000,0.000000,0.000000,-3.404768,-7.785557,6.738722,0.162452,0.000336,0.223828,0.000000,0.000000,0.000000
0.047000,-0.429671,-8.094682,8.700011,0.614800,-0.339221,0.253433,0.000000,0.000000,0.000000,-3.408680,-7.812953,6.733159,0.153949,-0.005897,0.230250,0.000000,0.000000,0.000000
0.048000,-0.438219,-8.087468,8.694066,0.607610,-0.345802,0.253695,0.000000,0.000000,0.000000,-3.407872,-7.835661,6.734114,0.145773,-0.012072,0.232772,0.000000,0.000000,0.000000
0.048000,-0.446767,-8.080255,8.688121,0.600420,-0.352383,0.253956,0.000000,0.000000,0.000000,-3.407065,-7.858369,6.735069,0.137597,-0.018248,0.235294,0.000000,0.000000,0.000000
0.049000,-0.455315,-8.073041,8.682175,0.593230,-0.358964,0.254217,0.000000,0.000000,0.000000,-3.406257,-7.881078,6.736024,0.129421,-0.024423,0.237816,0.000000,0.000000,0.000000
0.049000,-0.463863,-8.065827,8.676229,0.586040,-0.365546,0.254479,0.000000,0.000000,0.000000,-3.405449,-7.903786,6.736979,0.121245,-0.030599,0.240338,0.000000,0.000000,0.000000
0.050000,-0.472411,-8.058613,8.670284,0.578850,-0.372127,0.254740,0.000000,0.000000,0.000000,-3.404642,-7.926494,6.737934,0.113069,-0.036774,0.242860,0.000000,0.000000,0.000000
0.050000,-0.480959,-8.051399,8.664339,0.571660,-0.378708,0.255002,0.000000,0.000000,0.000000,-3.403834,-7.949203,6.738889,0.104893,-0.042950,0.245382,0.000000,0.000000,0.000000
0.051000,-0.489507,-8.044186,8.658393,0.564470,-0.385289,0.255263,0.000000,0.000000,0.000000,-3.403026,-7.971911,6.739844,0.096717,-0.049125,0.247904,0.000000,0.000000,0.000000
0.051000,-0.498055,-8.036972,8.652448,0.557280,-0.391870,0.255524,0.000000,0.000000,0.000000,-3.402219,-7.994619,6.740799,0.088541,-0.055301,0.250426,0.000000,0.000000,0.000000
0.051000,-0.506603,-8.029758,8.646502,0.550090,-0.398452,0.255786,0.000000,0.000000,0.000000,-3.401411,-8.017327,6.741754,0.080365,-0.061476,0.252948,0.000000,0.000000,0.000000
0.052000,-0.515151,-8.022545,8.640557,0.542900,-0.405033,0.256047,0.000000,0.000000,0.000000,-3.400603,-8.040035,6.742709,0.072189,-0.067652,0.255470,0.000000,0.000000,0.000000
0.052000,-0.523699,-8.015331,8.634612,0.535710,-0.411614,0.256309,0.000000,0.000000,0.000000,-3.399796,-8.062744,6.743664,0.064013,-0.073827,0.257992,0.000000,0.000000,0.000000
0.053000,-0.532247,-8.008118,8.628666,0.528520,-0.418195,0.256570,0.000000,0.000000,0.000000,-3.398988,-8.085452,6.744619,0.055837,-0.080003,0.260514,0.000000,0.000000,0.000000
0.053000,-0.540795,-8.000904,8.622721,0.521330,-0.424777,0.256831,0.000000,0.000000,0.000000,-3.398180,-8.108160,6.745574,0.047662,-0.086178,0.263036,0.000000,0.000000,0.000000
0.054000,-0.547284,-7.997922,8.614738,0.514013,-0.431596,0.257779,0.000000,0.000000,0.000000,-3.396369,-8.123648,6.747934,0.040792,-0.091451,0.264535,0.000000,0.000000,0.000000
0.054000,-0.551712,-7.999172,8.604720,0.506570,-0.438652,0.259412,0.000000,0.000000,0.000000,-3.393553,-8.131915,6.751699,0.035228,-0.095822,0.265011,0.000000,0.000000,0.000000
0.055000,-0.556140,-8.000422,8.594701,0.499127,-0.445709,0.261046,0.000000,0.000000,0.000000,-3.390737,-8.140182,6.755465,0.029665,-0.100193,0.265487,0.000000,0.000000,0.000000
0.056000,-0.560568,-8.001671,8.584682,0.491684,-0.452765,0.262680,0.000000,0.000000,0.000000,-3.387921,-8.148449,6.759229,0.024101,-0.104564,0.265963,0.000000,0.000000,0.000000
0.056000,-0.564997,-8.002921,8.574663,0.484241,-0.459822,0.264313,0.000000,0.000000,0.000000,-3.385105,-8.156716,6.762994,0.018537,-0.108935,0.266439,0.000000,0.000000,0.000000
0.057000,-0.569425,-8.004171,8.564644,0.476799,-0.466879,0.265947,0.000000,0.000000,0.000000,-3.382288,-8.164983,6.766759,0.012974,-0.113306,0.266915,0.000000,0.000000,0.000000
0.057000,-0.573853,-8.005421,8.554626,0.469356,-0.473935,0.267581,0.000000,0.000000,0.000000,-3.379472,-8.173250,6.770525,0.007410,-0.117676,0.267391,0.000000,0.000000,0.000000
0.058000,-0.578282,-8.006671,8.544606,0.461913,-0.480992,0.269214,0.000000,0.000000,0.000000,-3.376657,-8.181517,6.774290,0.001847,-0.122047,0.267867,0.000000,0.000000,0.000000
0.058000,-0.582710,-8.007920,8.534588,0.454470,-0.488048,0.270848,0.000000,0.000000,0.000000,-3.373841,-8.189784,6.778055,-0.003717,-0.126418,0.268343,0.000000,0.000000,0.000000
0.059000,-0.587138,-8.009171,8.524569,0.447027,-0.495105,0.272481,0.000000,0.000000,0.000000,-3.371025,-8.198051,6.781820,-0.009281,-0.130789,0.268819,0.000000,0.000000,0.000000
0.059000,-0.591567,-8.010420,8.514550,0.439584,-0.502161,0.274115,0.000000,0.000000,0.000000,-3.368209,-8.206318,6.785584,-0.014844,-0.135160,0.269295,0.000000,0.000000,0.000000
0.059000,-0.595995,-8.011670,8.504531,0.432141,-0.509218,0.275749,0.000000,0.000000,0.000000,-3.365392,-8.214585,6.789350,-0.020408,-0.139531,0.269771,0.000000,0.000000,0.000000
0.060000,-0.600423,-8.012919,8.494513,0.424698,-0.516275,0.277382,0.000000,0.000000,0.000000,-3.362576,-8.222852,6.793115,-0.025971,-0.143902,0.270247,0.000000,0.000000,0.000000
0.060000,-0.604851,-8.014170,8.484493,0.417255,-0.523331,0.279016,0.000000,0.000000,0.000000,-3.359761,-8.231119,6.796880,-0.031535,-0.148273,0.270723,0.000000,0.000000,0.000000
0.061000,-0.610952,-8.022289,8.469342,0.409503,-0.529683,0.280280,0.000000,0.000000,0.000000,-3.347136,-8.235619,6.793944,-0.034481,-0.152024,0.272365,0.000000,0.000000,0.000000
0.061000,-0.617053,-8.030409,8.454192,0.401751,-0.536035,0.281543,0.000000,0.000000,0.000000,-3.334511,-8.240117,6.791008,-0.037428,-0.155775,0.274007,0.000000,0.000000,0.000000
0.062000,-0.623153,-8.038528,8.439041,0.393999,-0.542387,0.282807,0.000000,0.000000,0.000000,-3.321887,-8.244617,6.788072,-0.040374,-0.159526,0.275650,0.000000,0.000000,0.000000
0.062000,-0.629254,-8.046648,8.423890,0.386247,-0.548739,0.284071,0.000000,0.000000,0.000000,-3.309262,-8.249115,6.785136,-0.043321,-0.163277,0.277292,0.000000,0.000000,0.000000
0.063000,-0.635354,-8.054768,8.408739,0.378495,-0.555091,0.285334,0.000000,0.000000,0.000000,-3.296637,-8.253614,6.782201,-0.046267,-0.167028,0.278934,0.000000,0.000000,0.000000
0.064000,-0.641455,-8.062887,8.393589,0.370743,-0.561443,0.286598,0.000000,0.000000,0.000000,-3.284012,-8.258113,6.779265,-0.049214,-0.170779,0.280576,0.000000,0.000000,0.000000
0.064000,-0.647555,-8.071008,8.378438,0.362991,-0.567795,0.287862,0.000000,0.000000,0.000000,-3.271388,-8.262612,6.776329,-0.052160,-0.174531,0.282218,0.000000,0.000000,0.000000
0.065000,-0.653656,-8.079127,8.363287,0.355239,-0.574147,0.289125,0.000000,0.000000,0.000000,-3.258763,-8.267111,6.773393,-0.055107,-0.178282,0.283860,0.000000,0.000000,0.000000
0.065000,-0.659756,-8.087247,8.348136,0.347486,-0.580499,0.290389,0.000000,0.000000,0.000000,-3.246138,-8.271610,6.770457,-0.058053,-0.182033,0.285502,0.000000,0.000000,0.000000
0.066000,-0.665857,-8.095366,8.332986,0.339734,-0.586850,0.291653,0.000000,0.000000,0.000000,-3.233514,-8.276110,6.767521,-0.061000,-0.185784,0.287145,0.000000,0.000000,0.000000
0.066000,-0.671957,-8.103486,8.317835,0.331982,-0.593202,0.292917,0.000000,0.000000,0.000000,-3.220889,-8.280608,6.764585,-0.063946,-0.189535,0.288787,0.000000,0.000000,0.000000
0.067000,-0.678058,-8.111606,8.302684,0.324230,-0.599554,0.294180,0.000000,0.000000,0.000000,-3.208264,-8.285108,6.761650,-0.066892,-0.193286,0.290429,0.000000,0.000000,0.000000
0.067000,-0.684158,-8.119725,8.287533,0.316478,-0.605906,0.295444,0.000000,0.000000,0.000000,-3.195640,-8.289606,6.758714,-0.069839,-0.197038,0.292071,0.000000,0.000000,0.000000
0.068000,-0.685992,-8.125253,8.277658,0.309702,-0.610835,0.296175,0.000000,0.000000,0.000000,-3.179157,-8.290895,6.755204,-0.072461,-0.200533,0.294082,0.000000,0.000000,0.000000
0.068000,-0.683558,-8.128189,8.273058,0.303902,-0.614340,0.296373,0.000000,0.000000,0.000000,-3.158817,-8.288975,6.751120,-0.074758,-0.203773,0.296463,0.000000,0.000000,0.000000
0.069000,-0.681124,-8.131124,8.268457,0.298102,-0.617846,0.296572,0.000000,0.000000,0.000000,-3.138476,-8.287054,6.747035,-0.077055,-0.207013,0.298844,0.000000,0.000000,0.000000
0.069000,-0.678691,-8.134060,8.263857,0.292302,-0.621351,0.296770,0.000000,0.000000,0.000000,-3.118136,-8.285132,6.742951,-0.079352,-0.210253,0.301224,0.000000,0.000000,0.000000
0.070000,-0.676257,-8.136996,8.259257,0.286501,-0.624857,0.296968,0.000000,0.000000,0.000000,-3.097795,-8.283212,6.738866,-0.081649,-0.213493,0.303605,0.000000,0.000000,0.000000
0.070000,-0.673823,-8.139932,8.254657,0.280701,-0.628362,0.297166,0.000000,0.000000,0.000000,-3.077455,-8.281291,6.734782,-0.083946,-0.216733,0.305986,0.000000,0.000000,0.000000
0.070000,-0.671389,-8.142867,8.250056,0.274901,-0.631868,0.297365,0.000000,0.000000,0.000000,-3.057115,-8.279370,6.730698,-0.086243,-0.219973,0.308366,0.000000,0.000000,0.000000
0.071000,-0.668956,-8.145803,8.245457,0.269101,-0.635373,0.297563,0.000000,0.000000,0.000000,-3.036774,-8.277450,6.726613,-0.088540,-0.223213,0.310747,0.000000,0.000000,0.000000
0.071000,-0.666522,-8.148739,8.240856,0.263301,-0.638879,0.297761,0.000000,0.000000,0.000000,-3.016434,-8.275529,6.722529,-0.090837,-0.226453,0.313128,0.000000,0.000000,0.000000
0.072000,-0.664088,-8.151675,8.236257,0.257501,-0.642384,0.297959,0.000000,0.000000,0.000000,-2.996094,-8.273608,6.718444,-0.093134,-0.229693,0.315508,0.000000,0.000000,0.000000
0.072000,-0.661654,-8.154611,8.231656,0.251701,-0.645890,0.298158,0.000000,0.000000,0.000000,-2.975753,-8.271687,6.714360,-0.095431,-0.232932,0.317889,0.000000,0.000000,0.000000
0.073000,-0.659221,-8.157546,8.227056,0.245901,-0.649395,0.298356,0.000000,0.000000,0.000000,-2.955413,-8.269766,6.710276,-0.097728,-0.236172,0.320270,0.000000,0.000000,0.000000
0.073000,-0.656787,-8.160482,8.222456,0.240101,-0.652901,0.298554,0.000000,0.000000,0.000000,-2.935073,-8.267845,6.706192,-0.100025,-0.239412,0.322650,0.000000,0.000000,0.000000
0.074000,-0.654353,-8.163418,8.217855,0.234301,-0.656406,0.298753,0.000000,0.000000,0.000000,-2.914732,-8.265924,6.702107,-0.102322,-0.242652,0.325031,0.000000,0.000000,0.000000
0.074000,-0.652211,-8.167453,8.208314,0.231156,-0.656104,0.298465,0.000000,0.000000,0.000000,-2.893159,-8.262170,6.700383,-0.104782,-0.244867,0.325291,0.000000,0.000000,0.000000
0.075000,-0.650069,-8.171489,8.198772,0.228011,-0.655802,0.298177,0.000000,0.000000,0.000000,-2.871585,-8.258416,6.698658,-0.107242,-0.247083,0.325551,0.000000,0.000000,0.000000
0.075000,-0.647927,-8.175524,8.189231,0.224866,-0.655500,0.297889,0.000000,0.000000,0.000000,-2.850011,-8.254662,6.696934,-0.109702,-0.249298,0.325811,0.000000,0.000000,0.000000
0.076000,-0.645786,-8.179559,8.179689,0.221722,-0.655198,0.297600,0.000000,0.000000,0.000000,-2.828438,-8.250907,6.695210,-0.112162,-0.251513,0.326071,0.000000,0.000000,0.000000
0.076000,-0.643644,-8.183595,8.170148,0.218577,-0.654896,0.297312,0.000000,0.000000,0.000000,-2.806864,-8.247153,6.693485,-0.114623,-0.253728,0.326331,0.000000,0.000000,0.000000
0.077000,-0.641502,-8.187630,8.160606,0.215432,-0.654594,0.297024,0.000000,0.000000,0.000000,-2.785290,-8.243399,6.691761,-0.117083,-0.255943,0.326591,0.000000,0.000000,0.000000
0.077000,-0.639360,-8.191665,8.151065,0.212287,-0.654292,0.296736,0.000000,0.000000,0.000000,-2.763717,-8.239644,6.690036,-0.119543,-0.258158,0.326852,0.000000,0.000000,0.000000
0.078000,-0.637218,-8.195701,8.141523,0.209143,-0.653990,0.296448,0.000000,0.000000,0.000000,-2.742143,-8.235890,6.688312,-0.122003,-0.260373,0.327112,0.000000,0.000000,0.000000
0.079000,-0.635076,-8.199736,8.131982,0.205998,-0.653688,0.296160,0.000000,0.000000,0.000000,-2.720570,-8.232136,6.686588,-0.124463,-0.262589,0.327372,0.000000,0.000000,0.000000
0.079000,-0.632934,-8.203771,8.122440,0.202853,-0.653386,0.295872,0.000000,0.000000,0.000000,-2.698996,-8.228381,6.684864,-0.126923,-0.264804,0.327632,0.000000,0.000000,0.000000
0.080000,-0.630792,-8.207807,8.112899,0.199708,-0.653084,0.295584,0.000000,0.000000,0.000000,-2.677423,-8.224627,6.683139,-0.129384,-0.267019,0.327892,0.000000,0.000000,0.000000
0.080000,-0.628650,-8.211842,8.103357,0.196564,-0.652782,0.295296,0.000000,0.000000,0.000000,-2.655849,-8.220873,6.681415,-0.131844,-0.269234,0.328152,0.000000,0.000000,0.000000
0.081000,-0.626508,-8.215877,8.093816,0.193419,-0.652480,0.295008,0.000000,0.000000,0.000000,-2.634275,-8.217118,6.679690,-0.134304,-0.271449,0.328412,0.000000,0.000000,0.000000
0.081000,-0.621841,-8.218144,8.082460,0.190766,-0.651648,0.294915,0.000000,0.000000,0.000000,-2.615753,-8.214158,6.678419,-0.136844,-0.273135,0.327192,0.000000,0.000000,0.000000
0.082000,-0.614649,-8.218643,8.069291,0.188604,-0.650285,0.295015,0.000000,0.000000,0.000000,-2.600283,-8.211992,6.677600,-0.139464,-0.274293,0.324493,0.000000,0.000000,0.000000
0.082000,-0.607457,-8.219143,8.056121,0.186442,-0.648923,0.295116,0.000000,0.000000,0.000000,-2.584813,-8.209826,6.676782,-0.142084,-0.275451,0.321793,0.000000,0.000000,0.000000
0.083000,-0.600265,-8.219642,8.042951,0.184280,-0.647560,0.295217,0.000000,0.000000,0.000000,-2.569343,-8.207659,6.675963,-0.144705,-0.276608,0.319093,0.000000,0.000000,0.000000
0.083000,-0.593073,-8.220140,8.029781,0.182118,-0.646197,0.295317,0.000000,0.000000,0.000000,-2.553873,-8.205493,6.675145,-0.147325,-0.277766,0.316394,0.000000,0.000000,0.000000
0.084000,-0.585880,-8.220640,8.016611,0.179956,-0.644835,0.295418,0.000000,0.000000,0.000000,-2.538403,-8.203326,6.674327,-0.149945,-0.278923,0.313694,0.000000,0.000000,0.000000
0.084000,-0.578688,-8.221139,8.003441,0.177795,-0.643472,0.295519,0.000000,0.000000,0.000000,-2.522933,-8.201159,6.673508,-0.152565,-0.280081,0.310994,0.000000,0.000000,0.000000
0.085000,-0.571496,-8.221639,7.990272,0.175633,-0.642109,0.295619,0.000000,0.000000,0.000000,-2.507463,-8.198994,6.672690,-0.155186,-0.281239,0.308294,0.000000,0.000000,0.000000
0.085000,-0.564304,-8.222137,7.977101,0.173471,-0.640747,0.295720,0.000000,0.000000,0.000000,-2.491993,-8.196827,6.671871,-0.157806,-0.282396,0.305595,0.000000,0.000000,0.000000
0.086000,-0.557112,-8.222636,7.963932,0.171309,-0.639384,0.295821,0.000000,0.000000,0.000000,-2.476523,-8.194661,6.671053,-0.160426,-0.283554,0.302895,0.000000,0.000000,0.000000
0.086000,-0.549920,-8.223136,7.950762,0.169147,-0.638022,0.295921,0.000000,0.000000,0.000000,-2.461053,-8.192494,6.670234,-0.163046,-0.284711,0.300195,0.000000,0.000000,0.000000
0.086000,-0.542728,-8.223635,7.937592,0.166985,-0.636659,0.296022,0.000000,0.000000,0.000000,-2.445583,-8.190328,6.669416,-0.165666,-0.285869,0.297496,0.000000,0.000000,0.000000
0.087000,-0.535535,-8.224134,7.924422,0.164824,-0.635296,0.296123,0.000000,0.000000,0.000000,-2.430113,-8.188162,6.668597,-0.168287,-0.287026,0.294796,0.000000,0.000000,0.000000
0.087000,-0.528343,-8.224633,7.911252,0.162662,-0.633934,0.296223,0.000000,0.000000,0.000000,-2.414643,-8.185995,6.667779,-0.170907,-0.288184,0.292096,0.000000,0.000000,0.000000
0.088000,-0.520101,-8.217024,7.907290,0.157839,-0.630221,0.296585,0.000000,0.000000,0.000000,-2.406586,-8.178669,6.669893,-0.172742,-0.287888,0.288147,0.000000,0.000000,0.000000
0.088000,-0.511858,-8.209414,7.903329,0.153016,-0.626508,0.296946,0.000000,0.000000,0.000000,-2.398529,-8.171344,6.672008,-0.174577,-0.287591,0.284197,0.000000,0.000000,0.000000
0.089000,-0.503616,-8.201804,7.899367,0.148194,-0.622795,0.297307,0.000000,0.000000,0.000000,-2.390472,-8.164018,6.674122,-0.176412,-0.287294,0.280248,0.000000,0.000000,0.000000
0.089000,-0.495373,-8.194195,7.895405,0.143371,-0.619082,0.297669,0.000000,0.000000,0.000000,-2.382415,-8.156692,6.676237,-0.178247,-0.286998,0.276299,0.000000,0.000000,0.000000
0.090000,-0.487131,-8.186584,7.891444,0.138548,-0.615369,0.298030,0.000000,0.000000,0.000000,-2.374358,-8.149365,6.678351,-0.180082,-0.286701,0.272349,0.000000,0.000000,0.000000
0.090000,-0.478888,-8.178975,7.887482,0.133726,-0.611656,0.298392,0.000000,0.000000,0.000000,-2.366301,-8.142040,6.680466,-0.181917,-0.286405,0.268400,0.000000,0.000000,0.000000
0.091000,-0.470645,-8.171366,7.883521,0.128903,-0.607943,0.298753,0.000000,0.000000,0.000000,-2.358244,-8.134714,6.682580,-0.183752,-0.286108,0.264450,0.000000,0.000000,0.000000
0.091000,-0.462403,-8.163755,7.879559,0.124080,-0.604230,0.299114,0.000000,0.000000,0.000000,-2.350188,-8.127388,6.684694,-0.185587,-0.285812,0.260501,0.000000,0.000000,0.000000
0.092000,-0.454160,-8.156146,7.875597,0.119258,-0.600517,0.299476,0.000000,0.000000,0.000000,-2.342131,-8.120063,6.686809,-0.187421,-0.285515,0.256551,0.000000,0.000000,0.000000
0.092000,-0.445918,-8.148537,7.871636,0.114435,-0.596804,0.299837,0.000000,0.000000,0.000000,-2.334074,-8.112737,6.688923,-0.189256,-0.285219,0.252602,0.000000,0.000000,0.000000
0.093000,-0.437675,-8.140926,7.867674,0.109612,-0.593091,0.300199,0.000000,0.000000,0.000000,-2.326017,-8.105411,6.691038,-0.191091,-0.284922,0.248652,0.000000,0.000000,0.000000
0.093000,-0.429433,-8.133317,7.863712,0.104790,-0.589378,0.300560,0.000000,0.000000,0.000000,-2.317960,-8.098085,6.693152,-0.192926,-0.284626,0.244703,0.000000,0.000000,0.000000
0.094000,-0.421190,-8.125708,7.859751,0.099967,-0.585665,0.300921,0.000000,0.000000,0.000000,-2.309903,-8.090759,6.695267,-0.194761,-0.284329,0.240754,0.000000,0.000000,0.000000
0.095000,-0.414788,-8.114754,7.857930,0.094504,-0.582582,0.301038,0.000000,0.000000,0.000000,-2.307158,-8.084259,6.694966,-0.196776,-0.283640,0.237352,0.000000,0.000000,0.000000
0.095000,-0.410226,-8.100457,7.858249,0.088401,-0.580129,0.300910,0.000000,0.000000,0.000000,-2.309726,-8.078584,6.692252,-0.198970,-0.282558,0.234498,0.000000,0.000000,0.000000
0.096000,-0.405664,-8.086161,7.858568,0.082299,-0.577675,0.300782,0.000000,0.000000,0.000000,-2.312293,-8.072908,6.689537,-0.201164,-0.281476,0.231645,0.000000,0.000000,0.000000
0.096000,-0.401102,-8.071863,7.858887,0.076196,-0.575222,0.300654,0.000000,0.000000,0.000000,-2.314861,-8.067233,6.686822,-0.203358,-0.280394,0.228791,0.000000,0.000000,0.000000
0.097000,-0.396540,-8.057567,7.859207,0.070093,-0.572769,0.300526,0.000000,0.000000,0.000000,-2.317428,-8.061558,6.684107,-0.205552,-0.279313,0.225937,0.000000,0.000000,0.000000
0.097000,-0.391978,-8.043269,7.859526,0.063990,-0.570315,0.300398,0.000000,0.000000,0.000000,-2.319995,-8.055883,6.681393,-0.207745,-0.278231,0.223084,0.000000,0.000000,0.000000
0.098000,-0.387417,-8.028973,7.859845,0.057888,-0.567862,0.300270,0.000000,0.000000,0.000000,-2.322563,-8.050208,6.678678,-0.209939,-0.277149,0.220230,0.000000,0.000000,0.000000
0.098000,-0.382855,-8.014676,7.860165,0.051785,-0.565408,0.300142,0.000000,0.000000,0.000000,-2.325130,-8.044533,6.675963,-0.212133,-0.276067,0.217376,0.000000,0.000000,0.000000
0.099000,-0.378293,-8.000379,7.860484,0.045682,-0.562955,0.300015,0.000000,0.000000,0.000000,-2.327698,-8.038857,6.673248,-0.214327,-0.274985,0.214523,0.000000,0.000000,0.000000
0.099000,-0.373731,-7.986082,7.860803,0.039579,-0.560502,0.299887,0.000000,0.000000,0.000000,-2.330265,-8.033182,6.670534,-0.216521,-0.273904,0.211669,0.000000,0.000000,0.000000
0.100000,-0.369169,-7.971785,7.861122,0.033477,-0.558048,0.299759,0.000000,0.000000,0.000000,-2.332832,-8.027507,6.667819,-0.218715,-0.272822,0.208815,0.000000,0.000000,0.000000
0.100000,-0.364607,-7.957488,7.861442,0.027374,-0.555595,0.299631,0.000000,0.000000,0.000000,-2.335400,-8.021832,6.665104,-0.220909,-0.271740,0.205962,0.000000,0.000000,0.000000
0.101000,-0.360045,-7.943192,7.861761,0.021271,-0.553141,0.299503,0.000000,0.000000,0.000000,-2.337967,-8.016157,6.662389,-0.223103,-0.270658,0.203108,0.000000,0.000000,0.000000
0.101000,-0.355483,-7.928895,7.862080,0.015168,-0.550688,0.299375,0.000000,0.000000,0.000000,-2.340535,-8.010482,6.659675,-0.225297,-0.269576,0.200254,0.000000,0.000000,0.000000
0.102000,-0.351213,-7.918660,7.866544,0.008647,-0.552573,0.298581,0.000000,0.000000,0.000000,-2.339839,-8.004389,6.658144,-0.228459,-0.268848,0.199412,0.000000,0.000000,0.000000
0.102000,-0.346943,-7.908426,7.871007,0.002126,-0.554457,0.297787,0.000000,0.000000,0.000000,-2.339143,-7.998297,6.656613,-0.231621,-0.268120,0.198570,0.000000,0.000000,0.000000
0.102000,-0.342673,-7.898192,7.875471,-0.004395,-0.556342,0.296993,0.000000,0.000000,0.000000,-2.338448,-7.992204,6.655083,-0.234782,-0.267392,0.197728,0.000000,0.000000,0.000000
0.103000,-0.338403,-7.887958,7.879935,-0.010916,-0.558227,0.296200,0.000000,0.000000,0.000000,-2.337752,-7.986111,6.653552,-0.237944,-0.266663,0.196885,0.000000,0.000000,0.000000
0.103000,-0.334133,-7.877723,7.884398,-0.017438,-0.560111,0.295406,0.000000,0.000000,0.000000,-2.337056,-7.980019,6.652021,-0.241106,-0.265935,0.196043,0.000000,0.000000,0.000000
0.104000,-0.329863,-7.867489,7.888862,-0.023959,-0.561996,0.294612,0.000000,0.000000,0.000000,-2.336360,-7.973926,6.650490,-0.244268,-0.265207,0.195201,0.000000,0.000000,0.000000
0.104000,-0.325593,-7.857255,7.893326,-0.030480,-0.563881,0.293818,0.000000,0.000000,0.000000,-2.335665,-7.967834,6.648960,-0.247429,-0.264479,0.194358,0.000000,0.000000,0.000000
0.105000,-0.321323,-7.847021,7.897789,-0.037001,-0.565766,0.293025,0.000000,0.000000,0.000000,-2.334969,-7.961741,6.647429,-0.250591,-0.263750,0.193516,0.000000,0.000000,0.000000
0.105000,-0.317053,-7.836786,7.902253,-0.043522,-0.567650,0.292231,0.000000,0.000000,0.000000,-2.334273,-7.955648,6.645898,-0.253753,-0.263022,0.192674,0.000000,0.000000,0.000000
0.106000,-0.312783,-7.826552,7.906717,-0.050044,-0.569535,0.291437,0.000000,0.000000,0.000000,-2.333578,-7.949555,6.644368,-0.256915,-0.262294,0.191832,0.000000,0.000000,0.000000
0.106000,-0.308512,-7.816318,7.911180,-0.056565,-0.571420,0.290643,0.000000,0.000000,0.000000,-2.332882,-7.943463,6.642837,-0.260076,-0.261565,0.190989,0.000000,0.000000,0.000000
0.107000,-0.304242,-7.806084,7.915644,-0.063086,-0.573304,0.289849,0.000000,0.000000,0.000000,-2.332186,-7.937370,6.641306,-0.263238,-0.260837,0.190147,0.000000,0.000000,0.000000
0.107000,-0.299972,-7.795849,7.920108,-0.069607,-0.575189,0.289056,0.000000,0.000000,0.000000,-2.331491,-7.931278,6.639775,-0.266400,-0.260109,0.189305,0.000000,0.000000,0.000000
0.108000,-0.293496,-7.790831,7.923385,-0.075946,-0.578574,0.288263,0.000000,0.000000,0.000000,-2.333160,-7.922281,6.635133,-0.270091,-0.259801,0.189165,0.000000,0.000000,0.000000
0.108000,-0.284815,-7.791027,7.925475,-0.082103,-0.583458,0.287473,0.000000,0.000000,0.000000,-2.337196,-7.910379,6.627378,-0.274312,-0.259912,0.189728,0.000000,0.000000,0.000000
0.109000,-0.276133,-7.791224,7.927565,-0.088259,-0.588343,0.286682,0.000000,0.000000,0.000000,-2.341231,-7.898478,6.619625,-0.278534,-0.260024,0.190291,0.000000,0.000000,0.000000
0.110000,-0.267451,-7.791420,7.929655,-0.094416,-0.593227,0.285891,0.000000,0.000000,0.000000,-2.345266,-7.886577,6.611870,-0.282755,-0.260135,0.190853,0.000000,0.000000,0.000000
0.110000,-0.258769,-7.791616,7.931745,-0.100573,-0.598112,0.285101,0.000000,0.000000,0.000000,-2.349302,-7.874675,6.604116,-0.286976,-0.260247,0.191416,0.000000,0.000000,0.000000
0.111000,-0.250088,-7.791813,7.933835,-0.106729,-0.602996,0.284310,0.000000,0.000000,0.000000,-2.353337,-7.862774,6.596362,-0.291197,-0.260358,0.191979,0.000000,0.000000,0.000000
0.111000,-0.241406,-7.792009,7.935925,-0.112886,-0.607881,0.283519,0.000000,0.000000,0.000000,-2.357372,-7.850873,6.588608,-0.295418,-0.260470,0.192542,0.000000,0.000000,0.000000
0.112000,-0.232724,-7.792206,7.938015,-0.119043,-0.612765,0.282728,0.000000,0.000000,0.000000,-2.361408,-7.838971,6.580853,-0.299639,-0.260582,0.193104,0.000000,0.000000,0.000000
0.112000,-0.224042,-7.792402,7.940104,-0.125200,-0.617650,0.281938,0.000000,0.000000,0.000000,-2.365443,-7.827070,6.573100,-0.303860,-0.260693,0.193667,0.000000,0.000000,0.000000
0.113000,-0.215360,-7.792599,7.942194,-0.131356,-0.622534,0.281147,0.000000,0.000000,0.000000,-2.369478,-7.815168,6.565345,-0.308081,-0.260805,0.194230,0.000000,0.000000,0.000000
0.113000,-0.206679,-7.792795,7.944284,-0.137513,-0.627419,0.280356,0.000000,0.000000,0.000000,-2.373514,-7.803267,6.557591,-0.312302,-0.260916,0.194792,0.000000,0.000000,0.000000
0.114000,-0.197997,-7.792992,7.946374,-0.143670,-0.632303,0.279565,0.000000,0.000000,0.000000,-2.377549,-7.791366,6.549837,-0.316523,-0.261028,0.195355,0.000000,0.000000,0.000000
0.114000,-0.189315,-7.793188,7.948464,-0.149826,-0.637188,0.278775,0.000000,0.000000,0.000000,-2.381584,-7.779464,6.542083,-0.320744,-0.261139,0.195918,0.000000,0.000000,0.000000
0.115000,-0.180633,-7.793385,7.950554,-0.155983,-0.642072,0.277984,0.000000,0.000000,0.000000,-2.385620,-7.767563,6.534328,-0.324966,-0.261251,0.196481,0.000000,0.000000,0.000000
0.115000,-0.179583,-7.796050,7.947436,-0.161186,-0.645769,0.278215,0.000000,0.000000,0.000000,-2.386143,-7.753389,6.526891,-0.327897,-0.261896,0.197256,0.000000,0.000000,0.000000
0.116000,-0.178532,-7.798716,7.944317,-0.166389,-0.649465,0.278446,0.000000,0.000000,0.000000,-2.386667,-7.739214,6.519453,-0.330828,-0.262540,0.198031,0.000000,0.000000,0.000000
0.116000,-0.177482,-7.801382,7.941198,-0.171592,-0.653162,0.278677,0.000000,0.000000,0.000000,-2.387191,-7.725040,6.512015,-0.333760,-0.263185,0.198806,0.000000,0.000000,0.000000
0.117000,-0.176432,-7.804047,7.938080,-0.176795,-0.656858,0.278908,0.000000,0.000000,0.000000,-2.387715,-7.710866,6.504578,-0.336691,-0.263829,0.199581,0.000000,0.000000,0.000000
0.117000,-0.175381,-7.806713,7.934961,-0.181997,-0.660555,0.279139,0.000000,0.000000,0.000000,-2.388239,-7.696692,6.497140,-0.339622,-0.264474,0.200356,0.000000,0.000000,0.000000
0.117000,-0.174331,-7.809379,7.931843,-0.187200,-0.664252,0.279370,0.000000,0.000000,0.000000,-2.388762,-7.682518,6.489702,-0.342554,-0.265119,0.201131,0.000000,0.000000,0.000000
0.118000,-0.173280,-7.812044,7.928724,-0.192403,-0.667948,0.279601,0.000000,0.000000,0.000000,-2.389286,-7.668344,6.482264,-0.345485,-0.265763,0.201905,0.000000,0.000000,0.000000
0.118000,-0.172230,-7.814710,7.925605,-0.197606,-0.671645,0.279832,0.000000,0.000000,0.000000,-2.389810,-7.654169,6.474826,-0.348416,-0.266408,0.202680,0.000000,0.000000,0.000000
0.119000,-0.171179,-7.817376,7.922487,-0.202809,-0.675341,0.280063,0.000000,0.000000,0.000000,-2.390334,-7.639995,6.467389,-0.351348,-0.267053,0.203455,0.000000,0.000000,0.000000
0.119000,-0.170129,-7.820041,7.919368,-0.208012,-0.679038,0.280294,0.000000,0.000000,0.000000,-2.390858,-7.625821,6.459951,-0.354279,-0.267697,0.204230,0.000000,0.000000,0.000000
0.120000,-0.169079,-7.822707,7.916250,-0.213215,-0.682734,0.280525,0.000000,0.000000,0.000000,-2.391382,-7.611647,6.452513,-0.357210,-0.268342,0.205005,0.000000,0.000000,0.000000
0.120000,-0.168028,-7.825373,7.913131,-0.218418,-0.686431,0.280756,0.000000,0.000000,0.000000,-2.391905,-7.597472,6.445076,-0.360142,-0.268986,0.205780,0.000000,0.000000,0.000000
0.121000,-0.166978,-7.828038,7.910012,-0.223620,-0.690128,0.280987,0.000000,0.000000,0.000000,-2.392429,-7.583298,6.437638,-0.363073,-0.269631,0.206555,0.000000,0.000000,0.000000
0.121000,-0.168330,-7.829463,7.907389,-0.228821,-0.693221,0.281144,0.000000,0.000000,0.000000,-2.389051,-7.571600,6.428135,-0.367700,-0.270910,0.207757,0.000000,0.000000,0.000000
0.122000,-0.172084,-7.829645,7.905261,-0.234018,-0.695711,0.281225,0.000000,0.000000,0.000000,-2.381772,-7.562378,6.416566,-0.374023,-0.272824,0.209385,0.000000,0.000000,0.000000
0.122000,-0.175838,-7.829828,7.903132,-0.239215,-0.698201,0.281306,0.000000,0.000000,0.000000,-2.374492,-7.553156,6.404998,-0.380346,-0.274738,0.211013,0.000000,0.000000,0.000000
0.123000,-0.179593,-7.830011,7.901004,-0.244413,-0.700690,0.281387,0.000000,0.000000,0.000000,-2.367213,-7.543934,6.393429,-0.386669,-0.276651,0.212641,0.000000,0.000000,0.000000
0.123000,-0.183347,-7.830194,7.898876,-0.249610,-0.703180,0.281469,0.000000,0.000000,0.000000,-2.359934,-7.534712,6.381861,-0.392991,-0.278565,0.214270,0.000000,0.000000,0.000000
0.124000,-0.187101,-7.830377,7.896748,-0.254808,-0.705670,0.281550,0.000000,0.000000,0.000000,-2.352654,-7.525490,6.370292,-0.399314,-0.280479,0.215898,0.000000,0.000000,0.000000
0.124000,-0.190856,-7.830559,7.894620,-0.260005,-0.708160,0.281631,0.000000,0.000000,0.000000,-2.345375,-7.516268,6.358724,-0.405637,-0.282393,0.217526,0.000000,0.000000,0.000000
0.125000,-0.194610,-7.830742,7.892492,-0.265202,-0.710650,0.281712,0.000000,0.000000,0.000000,-2.338095,-7.507045,6.347155,-0.411960,-0.284307,0.219154,0.000000,0.000000,0.000000
0.126000,-0.198364,-7.830925,7.890364,-0.270400,-0.713140,0.281794,0.000000,0.000000,0.000000,-2.330816,-7.497823,6.335587,-0.418283,-0.286220,0.220782,0.000000,0.000000,0.000000
0.126000,-0.202118,-7.831108,7.888236,-0.275597,-0.715630,0.281875,0.000000,0.000000,0.000000,-2.323536,-7.488601,6.324018,-0.424606,-0.288134,0.222410,0.000000,0.000000,0.000000
0.127000,-0.205873,-7.831291,7.886107,-0.280795,-0.718119,0.281956,0.000000,0.000000,0.000000,-2.316257,-7.479379,6.312450,-0.430929,-0.290048,0.224039,0.000000,0.000000,0.000000
0.127000,-0.209627,-7.831473,7.883979,-0.285992,-0.720609,0.282037,0.000000,0.000000,0.000000,-2.308977,-7.470157,6.300881,-0.437252,-0.291962,0.225667,0.000000,0.000000,0.000000
0.128000,-0.213381,-7.831656,7.881851,-0.291189,-0.723099,0.282119,0.000000,0.000000,0.000000,-2.301698,-7.460935,6.289313,-0.443574,-0.293875,0.227295,0.000000,0.000000,0.000000
0.128000,-0.217136,-7.831839,7.879723,-0.296387,-0.725589,0.282200,0.000000,0.000000,0.000000,-2.294419,-7.451713,6.277744,-0.449897,-0.295789,0.228923,0.000000,0.000000,0.000000
0.129000,-0.218614,-7.829441,7.877939,-0.301511,-0.727677,0.281178,0.000000,0.000000,0.000000,-2.279851,-7.442908,6.273024,-0.456495,-0.297975,0.230086,0.000000,0.000000,0.000000
0.129000,-0.220093,-7.827043,7.876154,-0.306635,-0.729765,0.280155,0.000000,0.000000,0.000000,-2.265284,-7.434104,6.268304,-0.463092,-0.300160,0.231249,0.000000,0.000000,0.000000
0.130000,-0.221572,-7.824644,7.874370,-0.311759,-0.731853,0.279133,0.000000,0.000000,0.000000,-2.250717,-7.425299,6.263584,-0.469690,-0.302346,0.232412,0.000000,0.000000,0.000000
0.130000,-0.223051,-7.822246,7.872585,-0.316883,-0.733940,0.278110,0.000000,0.000000,0.000000,-2.236150,-7.416494,6.258863,-0.476288,-0.304531,0.233575,0.000000,0.000000,0.000000
0.131000,-0.224530,-7.819848,7.870801,-0.322007,-0.736028,0.277088,0.000000,0.000000,0.000000,-2.221583,-7.407690,6.254143,-0.482885,-0.306716,0.234738,0.000000,0.000000,0.000000
0.131000,-0.226009,-7.817449,7.869017,-0.327131,-0.738116,0.276066,0.000000,0.000000,0.000000,-2.207016,-7.398885,6.249423,-0.489483,-0.308902,0.235902,0.000000,0.000000,0.000000
0.132000,-0.227487,-7.815051,7.867232,-0.332255,-0.740204,0.275043,0.000000,0.000000,0.000000,-2.192449,-7.390080,6.244703,-0.496080,-0.311087,0.237065,0.000000,0.000000,0.000000
0.132000,-0.228966,-7.812653,7.865448,-0.337379,-0.742292,0.274021,0.000000,0.000000,0.000000,-2.177882,-7.381276,6.239983,-0.502678,-0.313273,0.238228,0.000000,0.000000,0.000000
0.133000,-0.230445,-7.810254,7.863664,-0.342503,-0.744379,0.272998,0.000000,0.000000,0.000000,-2.163315,-7.372471,6.235262,-0.509276,-0.315458,0.239391,0.000000,0.000000,0.000000
0.133000,-0.231924,-7.807856,7.861879,-0.347627,-0.746467,0.271976,0.000000,0.000000,0.000000,-2.148748,-7.363667,6.230542,-0.515873,-0.317644,0.240554,0.000000,0.000000,0.000000
0.134000,-0.233403,-7.805458,7.860095,-0.352751,-0.748555,0.270954,0.000000,0.000000,0.000000,-2.134181,-7.354862,6.225822,-0.522471,-0.319829,0.241717,0.000000,0.000000,0.000000
0.134000,-0.234881,-7.803059,7.858310,-0.357875,-0.750643,0.269931,0.000000,0.000000,0.000000,-2.119613,-7.346057,6.221102,-0.529068,-0.322015,0.242880,0.000000,0.000000,0.000000
0.135000,-0.236360,-7.800661,7.856526,-0.362999,-0.752731,0.268909,0.000000,0.000000,0.000000,-2.105046,-7.337253,6.216382,-0.535666,-0.324200,0.244043,0.000000,0.000000,0.000000
0.135000,-0.235895,-7.796643,7.856954,-0.368132,-0.755111,0.267373,0.000000,0.000000,0.000000,-2.090388,-7.331426,6.213288,-0.542617,-0.326179,0.244518,0.000000,0.000000,0.000000
0.136000,-0.233486,-7.791007,7.859595,-0.373272,-0.757783,0.265323,0.000000,0.000000,0.000000,-2.075638,-7.328578,6.211820,-0.549921,-0.327951,0.244306,0.000000,0.000000,0.000000
0.136000,-0.231077,-7.785369,7.862236,-0.378412,-0.760456,0.263274,0.000000,0.000000,0.000000,-2.060888,-7.325729,6.210352,-0.557225,-0.329723,0.244094,0.000000,0.000000,0.000000
0.137000,-0.228667,-7.779733,7.864878,-0.383553,-0.763128,0.261224,0.000000,0.000000,0.000000,-2.046138,-7.322881,6.208884,-0.564529,-0.331494,0.243882,0.000000,0.000000,0.000000
0.137000,-0.226258,-7.774096,7.867519,-0.388693,-0.765800,0.259174,0.000000,0.000000,0.000000,-2.031388,-7.320032,6.207416,-0.571833,-0.333266,0.243669,0.000000,0.000000,0.000000
0.138000,-0.223849,-7.768459,7.870160,-0.393834,-0.768473,0.257125,0.000000,0.000000,0.000000,-2.016639,-7.317184,6.205948,-0.579137,-0.335038,0.243457,0.000000,0.000000,0.000000
0.138000,-0.221440,-7.762822,7.872801,-0.398974,-0.771145,0.255075,0.000000,0.000000,0.000000,-2.001889,-7.314335,6.204481,-0.586441,-0.336810,0.243245,0.000000,0.000000,0.000000
0.139000,-0.219031,-7.757185,7.875442,-0.404114,-0.773817,0.253026,0.000000,0.000000,0.000000,-1.987139,-7.311487,6.203012,-0.593745,-0.338582,0.243033,0.000000,0.000000,0.000000
0.139000,-0.216621,-7.751548,7.878083,-0.409255,-0.776490,0.250976,0.000000,0.000000,0.000000,-1.972389,-7.308639,6.201545,-0.601049,-0.340354,0.242821,0.000000,0.000000,0.000000
0.140000,-0.214212,-7.745911,7.880724,-0.414395,-0.779162,0.248926,0.000000,0.000000,0.000000,-1.957639,-7.305790,6.200077,-0.608353,-0.342126,0.242608,0.000000,0.000000,0.000000
0.140000,-0.211803,-7.740274,7.883366,-0.419536,-0.781835,0.246877,0.000000,0.000000,0.000000,-1.942889,-7.302941,6.198609,-0.615657,-0.343898,0.242396,0.000000,0.000000,0.000000
0.141000,-0.209394,-7.734637,7.886006,-0.424676,-0.784507,0.244827,0.000000,0.000000,0.000000,-1.928139,-7.300093,6.197141,-0.622961,-0.345670,0.242184,0.000000,0.000000,0.000000
0.141000,-0.206985,-7.729000,7.888648,-0.429817,-0.787179,0.242778,0.000000,0.000000,0.000000,-1.913389,-7.297245,6.195673,-0.630265,-0.347441,0.241972,0.000000,0.000000,0.000000
0.141000,-0.204575,-7.723363,7.891289,-0.434957,-0.789852,0.240728,0.000000,0.000000,0.000000,-1.898640,-7.294396,6.194205,-0.637569,-0.349213,0.241759,0.000000,0.000000,0.000000
0.142000,-0.203353,-7.722788,7.891706,-0.440143,-0.793369,0.238766,0.000000,0.000000,0.000000,-1.886190,-7.296734,6.191979,-0.644381,-0.349202,0.240732,0.000000,0.000000,0.000000
0.142000,-0.202131,-7.722212,7.892124,-0.445329,-0.796886,0.236803,0.000000,0.000000,0.000000,-1.873740,-7.299072,6.189753,-0.651192,-0.349190,0.239704,0.000000,0.000000,0.000000
0.143000,-0.200908,-7.721636,7.892541,-0.450515,-0.800403,0.234841,0.000000,0.000000,0.000000,-1.861290,-7.301411,6.187526,-0.658004,-0.349179,0.238676,0.000000,0.000000,0.000000
0.143000,-0.199686,-7.721061,7.892959,-0.455701,-0.803920,0.232879,0.000000,0.000000,0.000000,-1.848840,-7.303749,6.185300,-0.664816,-0.349167,0.237648,0.000000,0.000000,0.000000
0.144000,-0.198464,-7.720485,7.893376,-0.460886,-0.807437,0.230916,0.000000,0.000000,0.000000,-1.836390,-7.306087,6.183073,-0.671627,-0.349156,0.236620,0.000000,0.000000,0.000000
0.144000,-0.197241,-7.719909,7.893793,-0.466072,-0.810954,0.228954,0.000000,0.000000,0.000000,-1.823940,-7.308425,6.180847,-0.678439,-0.349144,0.235592,0.000000,0.000000,0.000000
0.145000,-0.196019,-7.719334,7.894211,-0.471258,-0.814471,0.226992,0.000000,0.000000,0.000000,-1.811491,-7.310763,6.178620,-0.685251,-0.349133,0.234565,0.000000,0.000000,0.000000
0.145000,-0.194797,-7.718758,7.894628,-0.476444,-0.817989,0.225030,0.000000,0.000000,0.000000,-1.799041,-7.313102,6.176394,-0.692062,-0.349121,0.233537,0.000000,0.000000,0.000000
0.146000,-0.193574,-7.718182,7.895046,-0.481630,-0.821506,0.223067,0.000000,0.000000,0.000000,-1.786591,-7.315440,6.174168,-0.698874,-0.349110,0.232509,0.000000,0.000000,0.000000
0.146000,-0.192352,-7.717607,7.895463,-0.486816,-0.825023,0.221105,0.000000,0.000000,0.000000,-1.774141,-7.317778,6.171941,-0.705686,-0.349098,0.231481,0.000000,0.000000,0.000000
0.147000,-0.191130,-7.717031,7.895880,-0.492002,-0.828540,0.219143,0.000000,0.000000,0.000000,-1.761691,-7.320117,6.169715,-0.712497,-0.349087,0.230453,0.000000,0.000000,0.000000
0.147000,-0.189907,-7.716455,7.896298,-0.497188,-0.832057,0.217180,0.000000,0.000000,0.000000,-1.749241,-7.322455,6.167489,-0.719309,-0.349075,0.229425,0.000000,0.000000,0.000000
0.148000,-0.188685,-7.715879,7.896715,-0.502374,-0.835574,0.215218,0.000000,0.000000,0.000000,-1.736791,-7.324793,6.165262,-0.726121,-0.349064,0.228398,0.000000,0.000000,0.000000
0.148000,-0.188783,-7.713744,7.899878,-0.506514,-0.838442,0.213854,0.000000,0.000000,0.000000,-1.726733,-7.331038,6.162179,-0.732017,-0.347882,0.226776,0.000000,0.000000,0.000000
0.149000,-0.190202,-7.710050,7.905785,-0.509608,-0.840661,0.213087,0.000000,0.000000,0.000000,-1.719066,-7.341191,6.158239,-0.737000,-0.345531,0.224560,0.000000,0.000000,0.000000
0.149000,-0.191621,-7.706356,7.911692,-0.512703,-0.842879,0.212321,0.000000,0.000000,0.000000,-1.711399,-7.351343,6.154299,-0.741982,-0.343179,0.222344,0.000000,0.000000,0.000000
0.150000,-0.193039,-7.702662,7.917599,-0.515797,-0.845098,0.211554,0.000000,0.000000,0.000000,-1.703732,-7.361495,6.150360,-0.746964,-0.340827,0.220129,0.000000,0.000000,0.000000
0.150000,-0.194458,-7.698967,7.923506,-0.518891,-0.847317,0.210788,0.000000,0.000000,0.000000,-1.696065,-7.371648,6.146420,-0.751946,-0.338476,0.217913,0.000000,0.000000,0.000000
0.151000,-0.195877,-7.695273,7.929413,-0.521986,-0.849536,0.210021,0.000000,0.000000,0.000000,-1.688398,-7.381800,6.142480,-0.756928,-0.336124,0.215697,0.000000,0.000000,0.000000
0.151000,-0.197296,-7.691579,7.935320,-0.525080,-0.851754,0.209255,0.000000,0.000000,0.000000,-1.680731,-7.391953,6.138540,-0.761910,-0.333773,0.213481,0.000000,0.000000,0.000000
0.152000,-0.198714,-7.687885,7.941226,-0.528174,-0.853973,0.208488,0.000000,0.000000,0.000000,-1.673064,-7.402105,6.134601,-0.766892,-0.331421,0.211266,0.000000,0.000000,0.000000
0.152000,-0.200133,-7.684191,7.947134,-0.531269,-0.856192,0.207722,0.000000,0.000000,0.000000,-1.665397,-7.412257,6.130661,-0.771874,-0.329070,0.209050,0.000000,0.000000,0.000000
0.153000,-0.201552,-7.680496,7.953041,-0.534363,-0.858411,0.206955,0.000000,0.000000,0.000000,-1.657731,-7.422410,6.126721,-0.776857,-0.326718,0.206834,0.000000,0.000000,0.000000
0.153000,-0.202971,-7.676802,7.958948,-0.537458,-0.860629,0.206189,0.000000,0.000000,0.000000,-1.650064,-7.432562,6.122781,-0.781839,-0.324366,0.204618,0.000000,0.000000,0.000000
0.154000,-0.204390,-7.673108,7.964855,-0.540552,-0.862848,0.205422,0.000000,0.000000,0.000000,-1.642397,-7.442714,6.118842,-0.786821,-0.322015,0.202403,0.000000,0.000000,0.000000
0.154000,-0.205808,-7.669414,7.970762,-0.543646,-0.865067,0.204656,0.000000,0.000000,0.000000,-1.634730,-7.452867,6.114902,-0.791803,-0.319663,0.200187,0.000000,0.000000,0.000000
0.155000,-0.207227,-7.665720,7.976669,-0.546741,-0.867286,0.203889,0.000000,0.000000,0.000000,-1.627063,-7.463019,6.110962,-0.796785,-0.317312,0.197971,0.000000,0.000000,0.000000
0.155000,-0.208621,-7.660167,7.980434,-0.553355,-0.871834,0.203427,0.000000,0.000000,0.000000,-1.626784,-7.475701,6.101961,-0.799881,-0.314151,0.194505,0.000000,0.000000,0.000000
0.156000,-0.210016,-7.654614,7.984200,-0.559969,-0.876382,0.202965,0.000000,0.000000,0.000000,-1.626506,-7.488383,6.092960,-0.802978,-0.310989,0.191039,0.000000,0.000000,0.000000
0.157000,-0.211410,-7.649062,7.987965,-0.566583,-0.880930,0.202503,0.000000,0.000000,0.000000,-1.626227,-7.501064,6.083959,-0.806074,-0.307828,0.187573,0.000000,0.000000,0.000000
0.157000,-0.212804,-7.643510,7.991730,-0.573196,-0.885478,0.202041,0.000000,0.000000,0.000000,-1.625949,-7.513746,6.074957,-0.809170,-0.304667,0.184107,0.000000,0.000000,0.000000
0.158000,-0.214198,-7.637958,7.995496,-0.579810,-0.890026,0.201579,0.000000,0.000000,0.000000,-1.625671,-7.526428,6.065956,-0.812266,-0.301506,0.180640,0.000000,0.000000,0.000000
0.158000,-0.215593,-7.632405,7.999261,-0.586424,-0.894574,0.201117,0.000000,0.000000,0.000000,-1.625392,-7.539110,6.056955,-0.815363,-0.298345,0.177174,0.000000,0.000000,0.000000
0.159000,-0.216987,-7.626853,8.003026,-0.593038,-0.899121,0.200655,0.000000,0.000000,0.000000,-1.625114,-7.551792,6.047954,-0.818459,-0.295184,0.173708,0.000000,0.000000,0.000000
0.159000,-0.218381,-7.621300,8.006792,-0.599652,-0.903669,0.200193,0.000000,0.000000,0.000000,-1.624835,-7.564474,6.038953,-0.821555,-0.292022,0.170242,0.000000,0.000000,0.000000
0.160000,-0.219775,-7.615747,8.010557,-0.606266,-0.908217,0.199731,0.000000,0.000000,0.000000,-1.624557,-7.577156,6.029952,-0.824651,-0.288861,0.166776,0.000000,0.000000,0.000000
0.160000,-0.221169,-7.610195,8.014322,-0.612880,-0.912765,0.199269,0.000000,0.000000,0.000000,-1.624278,-7.589838,6.020951,-0.827748,-0.285700,0.163310,0.000000,0.000000,0.000000
0.161000,-0.222564,-7.604643,8.018087,-0.619494,-0.917313,0.198807,0.000000,0.000000,0.000000,-1.624000,-7.602520,6.011950,-0.830844,-0.282539,0.159844,0.000000,0.000000,0.000000
0.161000,-0.223958,-7.599090,8.021853,-0.626108,-0.921861,0.198344,0.000000,0.000000,0.000000,-1.623721,-7.615201,6.002948,-0.833940,-0.279378,0.156377,0.000000,0.000000,0.000000
0.162000,-0.225352,-7.593538,8.025619,-0.632722,-0.926409,0.197882,0.000000,0.000000,0.000000,-1.623443,-7.627883,5.993947,-0.837036,-0.276217,0.152911,0.000000,0.000000,0.000000
0.162000,-0.226900,-7.588884,8.026487,-0.639846,-0.931297,0.197513,0.000000,0.000000,0.000000,-1.628705,-7.637545,5.986211,-0.840301,-0.273541,0.148896,0.000000,0.000000,0.000000
0.163000,-0.228603,-7.585130,8.024460,-0.647479,-0.936524,0.197236,0.000000,0.000000,0.000000,-1.639506,-7.644186,5.979739,-0.843735,-0.271350,0.144332,0.000000,0.000000,0.000000
0.163000,-0.230305,-7.581376,8.022432,-0.655112,-0.941751,0.196958,0.000000,0.000000,0.000000,-1.650308,-7.650826,5.973268,-0.847168,-0.269159,0.139767,0.000000,0.000000,0.000000
0.164000,-0.232008,-7.577621,8.020405,-0.662745,-0.946978,0.196681,0.000000,0.000000,0.000000,-1.661110,-7.657467,5.966795,-0.850601,-0.266968,0.135203,0.000000,0.000000,0.000000
0.164000,-0.233710,-7.573867,8.018377,-0.670379,-0.952205,0.196404,0.000000,0.000000,0.000000,-1.671911,-7.664109,5.960324,-0.854035,-0.264777,0.130639,0.000000,0.000000,0.000000
0.165000,-0.235412,-7.570113,8.016350,-0.678012,-0.957432,0.196127,0.000000,0.000000,0.000000,-1.682713,-7.670750,5.953852,-0.857468,-0.262586,0.126074,0.000000,0.000000,0.000000
0.165000,-0.237115,-7.566359,8.014322,-0.685645,-0.962660,0.195850,0.000000,0.000000,0.000000,-1.693515,-7.677391,5.947381,-0.860902,-0.260395,0.121510,0.000000,0.000000,0.000000
0.166000,-0.238817,-7.562604,8.012296,-0.693278,-0.967887,0.195573,0.000000,0.000000,0.000000,-1.704316,-7.684031,5.940909,-0.864335,-0.258204,0.116946,0.000000,0.000000,0.000000
0.166000,-0.240519,-7.558850,8.010268,-0.700912,-0.973114,0.195296,0.000000,0.000000,0.000000,-1.715118,-7.690673,5.934437,-0.867768,-0.256013,0.112382,0.000000,0.000000,0.000000
0.167000,-0.242222,-7.555096,8.008241,-0.708545,-0.978341,0.195019,0.000000,0.000000,0.000000,-1.725920,-7.697314,5.927966,-0.871202,-0.253823,0.107817,0.000000,0.000000,0.000000
0.167000,-0.243924,-7.551341,8.006213,-0.716178,-0.983568,0.194741,0.000000,0.000000,0.000000,-1.736722,-7.703955,5.921494,-0.874635,-0.251632,0.103253,0.000000,0.000000,0.000000
0.168000,-0.245627,-7.547587,8.004186,-0.723812,-0.988795,0.194464,0.000000,0.000000,0.000000,-1.747523,-7.710596,5.915022,-0.878069,-0.249441,0.098689,0.000000,0.000000,0.000000
0.168000,-0.247329,-7.543832,8.002158,-0.731445,-0.994022,0.194187,0.000000,0.000000,0.000000,-1.758325,-7.717237,5.908550,-0.881502,-0.247250,0.094124,0.000000,0.000000,0.000000
0.169000,-0.249031,-7.540078,8.000131,-0.739078,-0.999250,0.193910,0.000000,0.000000,0.000000,-1.769127,-7.723878,5.902079,-0.884935,-0.245059,0.089560,0.000000,0.000000,0.000000
0.169000,-0.259342,-7.538845,8.008801,-0.747663,-1.003759,0.194130,0.000000,0.000000,0.000000,-1.786886,-7.728781,5.889296,-0.888972,-0.243175,0.084042,0.000000,0.000000,0.000000
0.170000,-0.269653,-7.537611,8.017472,-0.756248,-1.008269,0.194350,0.000000,0.000000,0.000000,-1.804645,-7.733684,5.876513,-0.893009,-0.241292,0.078524,0.000000,0.000000,0.000000
0.170000,-0.279964,-7.536378,8.026144,-0.764832,-1.012779,0.194570,0.000000,0.000000,0.000000,-1.822405,-7.738587,5.863731,-0.897046,-0.239408,0.073005,0.000000,0.000000,0.000000
0.171000,-0.290274,-7.535145,8.034815,-0.773417,-1.017289,0.194791,0.000000,0.000000,0.000000,-1.840164,-7.743490,5.850948,-0.901082,-0.237525,0.067487,0.000000,0.000000,0.000000
0.171000,-0.300585,-7.533911,8.043486,-0.782002,-1.021798,0.195011,0.000000,0.000000,0.000000,-1.857924,-7.748394,5.838165,-0.905119,-0.235641,0.061969,0.000000,0.000000,0.000000
0.172000,-0.310896,-7.532678,8.052156,-0.790587,-1.026308,0.195231,0.000000,0.000000,0.000000,-1.875683,-7.753296,5.825383,-0.909156,-0.233758,0.056451,0.000000,0.000000,0.000000
0.172000,-0.321207,-7.531445,8.060828,-0.799171,-1.030818,0.195451,0.000000,0.000000,0.000000,-1.893442,-7.758200,5.812600,-0.913193,-0.231874,0.050933,0.000000,0.000000,0.000000
0.172000,-0.331517,-7.530211,8.069499,-0.807756,-1.035328,0.195671,0.000000,0.000000,0.000000,-1.911202,-7.763103,5.799818,-0.917230,-0.229991,0.045414,0.000000,0.000000,0.000000
0.173000,-0.341828,-7.528978,8.078170,-0.816341,-1.039837,0.195891,0.000000,0.000000,0.000000,-1.928961,-7.768006,5.787035,-0.921266,-0.228107,0.039896,0.000000,0.000000,0.000000
0.173000,-0.352139,-7.527744,8.086841,-0.824925,-1.044347,0.196111,0.000000,0.000000,0.000000,-1.946720,-7.772909,5.774252,-0.925303,-0.226224,0.034378,0.000000,0.000000,0.000000
0.174000,-0.362450,-7.526511,8.095511,-0.833510,-1.048857,0.196331,0.000000,0.000000,0.000000,-1.964480,-7.777812,5.761470,-0.929340,-0.224340,0.028860,0.000000,0.000000,0.000000
0.174000,-0.372760,-7.525278,8.104183,-0.842095,-1.053367,0.196552,0.000000,0.000000,0.000000,-1.982239,-7.782715,5.748687,-0.933377,-0.222457,0.023342,0.000000,0.000000,0.000000
0.175000,-0.383071,-7.524044,8.112854,-0.850680,-1.057876,0.196772,0.000000,0.000000,0.000000,-1.999999,-7.787618,5.735905,-0.937413,-0.220574,0.017823,0.000000,0.000000,0.000000
0.175000,-0.393547,-7.526357,8.119848,-0.859755,-1.062485,0.196887,0.000000,0.000000,0.000000,-2.017457,-7.789752,5.720989,-0.941631,-0.219424,0.012324,0.000000,0.000000,0.000000
0.176000,-0.404188,-7.532215,8.125166,-0.869321,-1.067193,0.196898,0.000000,0.000000,0.000000,-2.034613,-7.789116,5.703942,-0.946030,-0.219009,0.006844,0.000000,0.000000,0.000000
0.176000,-0.414829,-7.538073,8.130485,-0.878887,-1.071901,0.196909,0.000000,0.000000,0.000000,-2.051770,-7.788480,5.686894,-0.950429,-0.218595,0.001364,0.000000,0.000000,0.000000
0.177000,-0.425469,-7.543931,8.135802,-0.888453,-1.076609,0.196920,0.000000,0.000000,0.000000,-2.068926,-7.787845,5.669847,-0.954827,-0.218180,-0.004116,0.000000,0.000000,0.000000
0.177000,-0.436110,-7.549788,8.141120,-0.898018,-1.081317,0.196931,0.000000,0.000000,0.000000,-2.086083,-7.787209,5.652800,-0.959226,-0.217765,-0.009596,0.000000,0.000000,0.000000
0.178000,-0.446751,-7.555646,8.146438,-0.907584,-1.086025,0.196942,0.000000,0.000000,0.000000,-2.103240,-7.786573,5.635752,-0.963625,-0.217350,-0.015076,0.000000,0.000000,0.000000
0.178000,-0.457392,-7.561504,8.151755,-0.917150,-1.090734,0.196953,0.000000,0.000000,0.000000,-2.120396,-7.785937,5.618705,-0.968024,-0.216935,-0.020556,0.000000,0.000000,0.000000
0.179000,-0.468033,-7.567362,8.157074,-0.926716,-1.095442,0.196964,0.000000,0.000000,0.000000,-2.137553,-7.785302,5.601657,-0.972422,-0.216520,-0.026036,0.000000,0.000000,0.000000
0.179000,-0.478674,-7.573220,8.162392,-0.936282,-1.100150,0.196975,0.000000,0.000000,0.000000,-2.154710,-7.784666,5.584610,-0.976821,-0.216105,-0.031516,0.000000,0.000000,0.000000
0.180000,-0.489315,-7.579078,8.167709,-0.945848,-1.104858,0.196985,0.000000,0.000000,0.000000,-2.171866,-7.784030,5.567563,-0.981220,-0.215691,-0.036996,0.000000,0.000000,0.000000
0.180000,-0.499955,-7.584936,8.173027,-0.955414,-1.109566,0.196996,0.000000,0.000000,0.000000,-2.189023,-7.783394,5.550515,-0.985619,-0.215276,-0.042476,0.000000,0.000000,0.000000
0.181000,-0.510596,-7.590794,8.178346,-0.964979,-1.114274,0.197007,0.000000,0.000000,0.000000,-2.206179,-7.782759,5.533468,-0.990017,-0.214861,-0.047956,0.000000,0.000000,0.000000
0.181000,-0.521237,-7.596652,8.183663,-0.974545,-1.118982,0.197018,0.000000,0.000000,0.000000,-2.223336,-7.782123,5.516420,-0.994416,-0.214446,-0.053436,0.000000,0.000000,0.000000
0.182000,-0.531878,-7.602510,8.188981,-0.984111,-1.123690,0.197029,0.000000,0.000000,0.000000,-2.240493,-7.781487,5.499373,-0.998815,-0.214031,-0.058916,0.000000,0.000000,0.000000
0.182000,-0.541832,-7.606057,8.185068,-0.994055,-1.127935,0.197209,0.000000,0.000000,0.000000,-2.244809,-7.781744,5.490981,-1.004996,-0.217551,-0.063691,0.000000,0.000000,0.000000
0.183000,-0.551785,-7.609604,8.181156,-1.003998,-1.132181,0.197388,0.000000,0.000000,0.000000,-2.249125,-7.782000,5.482588,-1.011177,-0.221071,-0.068467,0.000000,0.000000,0.000000
0.183000,-0.561739,-7.613151,8.177243,-1.013942,-1.136426,0.197568,0.000000,0.000000,0.000000,-2.253442,-7.782257,5.474195,-1.017358,-0.224592,-0.073242,0.000000,0.000000,0.000000
0.184000,-0.571692,-7.616698,8.173330,-1.023886,-1.140672,0.197747,0.000000,0.000000,0.000000,-2.257758,-7.782513,5.465803,-1.023539,-0.228112,-0.078017,0.000000,0.000000,0.000000
0.184000,-0.581646,-7.620245,8.169417,-1.033829,-1.144917,0.197926,0.000000,0.000000,0.000000,-2.262075,-7.782770,5.457411,-1.029720,-0.231632,-0.082793,0.000000,0.000000,0.000000
0.185000,-0.591599,-7.623792,8.165505,-1.043773,-1.149163,0.198106,0.000000,0.000000,0.000000,-2.266392,-7.783026,5.449018,-1.035901,-0.235152,-0.087568,0.000000,0.000000,0.000000
0.185000,-0.601553,-7.627339,8.161592,-1.053717,-1.153408,0.198285,0.000000,0.000000,0.000000,-2.270708,-7.783282,5.440626,-1.042082,-0.238672,-0.092344,0.000000,0.000000,0.000000
0.186000,-0.611506,-7.630886,8.157680,-1.063661,-1.157653,0.198465,0.000000,0.000000,0.000000,-2.275024,-7.783539,5.432233,-1.048263,-0.242192,-0.097119,0.000000,0.000000,0.000000
0.186000,-0.621460,-7.634433,8.153767,-1.073604,-1.161899,0.198644,0.000000,0.000000,0.000000,-2.279341,-7.783795,5.423841,-1.054444,-0.245712,-0.101895,0.000000,0.000000,0.000000
0.187000,-0.631413,-7.637980,8.149855,-1.083548,-1.166144,0.198824,0.000000,0.000000,0.000000,-2.283657,-7.784052,5.415448,-1.060625,-0.249232,-0.106670,0.000000,0.000000,0.000000
0.188000,-0.641367,-7.641527,8.145942,-1.093492,-1.170390,0.199003,0.000000,0.000000,0.000000,-2.287974,-7.784308,5.407056,-1.066806,-0.252753,-0.111445,0.000000,0.000000,0.000000
0.188000,-0.651321,-7.645074,8.142029,-1.103435,-1.174635,0.199183,0.000000,0.000000,0.000000,-2.292290,-7.784565,5.398663,-1.072987,-0.256273,-0.116221,0.000000,0.000000,0.000000
0.189000,-0.661274,-7.648621,8.138116,-1.113379,-1.178880,0.199362,0.000000,0.000000,0.000000,-2.296607,-7.784822,5.390271,-1.079168,-0.259793,-0.120996,0.000000,0.000000,0.000000
0.189000,-0.666667,-7.652020,8.136368,-1.123437,-1.181830,0.199727,0.000000,0.000000,0.000000,-2.298501,-7.784430,5.377990,-1.084713,-0.263271,-0.124559,0.000000,0.000000,0.000000
0.190000,-0.667499,-7.655273,8.136783,-1.133609,-1.183485,0.200276,0.000000,0.000000,0.000000,-2.297971,-7.783391,5.361822,-1.089621,-0.266708,-0.126908,0.000000,0.000000,0.000000
0.190000,-0.668331,-7.658525,8.137197,-1.143781,-1.185139,0.200826,0.000000,0.000000,0.000000,-2.297443,-7.782351,5.345653,-1.094529,-0.270145,-0.129257,0.000000,0.000000,0.000000
0.191000,-0.669163,-7.661778,8.137612,-1.153953,-1.186794,0.201375,0.000000,0.000000,0.000000,-2.296914,-7.781312,5.329484,-1.099437,-0.273582,-0.131606,0.000000,0.000000,0.000000
0.191000,-0.669995,-7.665030,8.138027,-1.164126,-1.188448,0.201924,0.000000,0.000000,0.000000,-2.296385,-7.780272,5.313316,-1.104345,-0.277019,-0.133955,0.000000,0.000000,0.000000
0.192000,-0.670827,-7.668283,8.138442,-1.174298,-1.190102,0.202474,0.000000,0.000000,0.000000,-2.295856,-7.779233,5.297147,-1.109252,-0.280456,-0.136304,0.000000,0.000000,0.000000
0.192000,-0.671660,-7.671535,8.138857,-1.184470,-1.191757,0.203023,0.000000,0.000000,0.000000,-2.295327,-7.778193,5.280979,-1.114160,-0.283893,-0.138653,0.000000,0.000000,0.000000
0.193000,-0.672492,-7.674788,8.139272,-1.194642,-1.193411,0.203572,0.000000,0.000000,0.000000,-2.294798,-7.777153,5.264810,-1.119068,-0.287330,-0.141002,0.000000,0.000000,0.000000
0.193000,-0.673324,-7.678040,8.139687,-1.204814,-1.195065,0.204122,0.000000,0.000000,0.000000,-2.294269,-7.776114,5.248641,-1.123976,-0.290767,-0.143351,0.000000,0.000000,0.000000
0.194000,-0.674156,-7.681292,8.140101,-1.214986,-1.196720,0.204671,0.000000,0.000000,0.000000,-2.293740,-7.775074,5.232473,-1.128884,-0.294203,-0.145700,0.000000,0.000000,0.000000
0.194000,-0.674988,-7.684545,8.140516,-1.225159,-1.198374,0.205220,0.000000,0.000000,0.000000,-2.293211,-7.774035,5.216304,-1.133792,-0.297640,-0.148050,0.000000,0.000000,0.000000
0.195000,-0.675820,-7.687797,8.140931,-1.235331,-1.200029,0.205770,0.000000,0.000000,0.000000,-2.292682,-7.772995,5.200136,-1.138700,-0.301077,-0.150399,0.000000,0.000000,0.000000
0.195000,-0.676652,-7.691049,8.141346,-1.245503,-1.201683,0.206319,0.000000,0.000000,0.000000,-2.292153,-7.771955,5.183967,-1.143608,-0.304514,-0.152748,0.000000,0.000000,0.000000
0.196000,-0.677484,-7.694302,8.141761,-1.255675,-1.203337,0.206868,0.000000,0.000000,0.000000,-2.291625,-7.770916,5.167799,-1.148516,-0.307951,-0.155097,0.000000,0.000000,0.000000
0.196000,-0.679378,-7.693666,8.137796,-1.266981,-1.200556,0.208472,0.000000,0.000000,0.000000,-2.278842,-7.770157,5.153562,-1.159012,-0.315078,-0.159348,0.000000,0.000000,0.000000
0.197000,-0.681272,-7.693030,8.133832,-1.278286,-1.197775,0.210076,0.000000,0.000000,0.000000,-2.266059,-7.769399,5.139325,-1.169507,-0.322205,-0.163600,0.000000,0.000000,0.000000
0.197000,-0.683166,-7.692394,8.129869,-1.289592,-1.194993,0.211680,0.000000,0.000000,0.000000,-2.253277,-7.768641,5.125088,-1.180003,-0.329332,-0.167851,0.000000,0.000000,0.000000
0.198000,-0.685060,-7.691759,8.125904,-1.300898,-1.192212,0.213284,0.000000,0.000000,0.000000,-2.240494,-7.767882,5.110851,-1.190498,-0.336459,-0.172103,0.000000,0.000000,0.000000
0.198000,-0.686953,-7.691123,8.121940,-1.312203,-1.189430,0.214888,0.000000,0.000000,0.000000,-2.227712,-7.767124,5.096613,-1.200994,-0.343586,-0.176354,0.000000,0.000000,0.000000
0.199000,-0.688847,-7.690487,8.117975,-1.323509,-1.186649,0.216492,0.000000,0.000000,0.000000,-2.214929,-7.766365,5.082376,-1.211489,-0.350713,-0.180605,0.000000,0.000000,0.000000
0.199000,-0.690741,-7.689851,8.114011,-1.334814,-1.183867,0.218096,0.000000,0.000000,0.000000,-2.202147,-7.765606,5.068140,-1.221985,-0.357840,-0.184857,0.000000,0.000000,0.000000
0.200000,-0.692635,-7.689216,8.110046,-1.346120,-1.181086,0.219700,0.000000,0.000000,0.000000,-2.189364,-7.764848,5.053903,-1.232480,-0.364967,-0.189108,0.000000,0.000000,0.000000
0.200000,-0.694529,-7.688580,8.106083,-1.357426,-1.178304,0.221304,0.000000,0.000000,0.000000,-2.176582,-7.764090,5.039666,-1.242975,-0.372094,-0.193360,0.000000,0.000000,0.000000
0.201000,-0.696422,-7.687944,8.102118,-1.368731,-1.175523,0.222907,0.000000,0.000000,0.000000,-2.163799,-7.763331,5.025429,-1.253471,-0.379221,-0.197611,0.000000,0.000000,0.000000
0.201000,-0.698316,-7.687308,8.098154,-1.380037,-1.172741,0.224511,0.000000,0.000000,0.000000,-2.151017,-7.762573,5.011192,-1.263967,-0.386348,-0.201863,0.000000,0.000000,0.000000
0.202000,-0.700210,-7.686673,8.094190,-1.391343,-1.169960,0.226115,0.000000,0.000000,0.000000,-2.138234,-7.761814,4.996955,-1.274462,-0.393475,-0.206114,0.000000,0.000000,0.000000
0.202000,-0.702104,-7.686037,8.090225,-1.402648,-1.167179,0.227719,0.000000,0.000000,0.000000,-2.125452,-7.761055,4.982718,-1.284958,-0.400602,-0.210366,0.000000,0.000000,0.000000
0.203000,-0.700269,-7.685737,8.083259,-1.413983,-1.163276,0.229479,0.000000,0.000000,0.000000,-2.109960,-7.760151,4.968298,-1.295491,-0.406801,-0.214583,0.000000,0.000000,0.000000
0.203000,-0.694705,-7.685772,8.073289,-1.425347,-1.158254,0.231395,0.000000,0.000000,0.000000,-2.091759,-7.759100,4.953695,-1.306062,-0.412071,-0.218767,0.000000,0.000000,0.000000
0.203000,-0.689142,-7.685808,8.063320,-1.436711,-1.153231,0.233312,0.000000,0.000000,0.000000,-2.073558,-7.758050,4.939093,-1.316633,-0.417342,-0.222950,0.000000,0.000000,0.000000
0.204000,-0.683578,-7.685844,8.053350,-1.448075,-1.148208,0.235228,0.000000,0.000000,0.000000,-2.055357,-7.756999,4.924490,-1.327205,-0.422612,-0.227134,0.000000,0.000000,0.000000
0.204000,-0.678015,-7.685879,8.043381,-1.459439,-1.143185,0.237144,0.000000,0.000000,0.000000,-2.037155,-7.755949,4.909887,-1.337776,-0.427882,-0.231317,0.000000,0.000000,0.000000
0.205000,-0.672451,-7.685915,8.033411,-1.470803,-1.138162,0.239060,0.000000,0.000000,0.000000,-2.018954,-7.754898,4.895285,-1.348347,-0.433152,-0.235501,0.000000,0.000000,0.000000
0.205000,-0.666888,-7.685951,8.023442,-1.482167,-1.133139,0.240977,0.000000,0.000000,0.000000,-2.000753,-7.753847,4.880682,-1.358919,-0.438423,-0.239684,0.000000,0.000000,0.000000
0.206000,-0.661325,-7.685987,8.013473,-1.493531,-1.128116,0.242893,0.000000,0.000000,0.000000,-1.982552,-7.752797,4.866079,-1.369490,-0.443693,-0.243868,0.000000,0.000000,0.000000
0.206000,-0.655761,-7.686022,8.003503,-1.504895,-1.123093,0.244809,0.000000,0.000000,0.000000,-1.964351,-7.751746,4.851477,-1.380061,-0.448963,-0.248051,0.000000,0.000000,0.000000
0.207000,-0.650198,-7.686058,7.993534,-1.516259,-1.118071,0.246725,0.000000,0.000000,0.000000,-1.946150,-7.750695,4.836874,-1.390633,-0.454233,-0.252235,0.000000,0.000000,0.000000
0.207000,-0.644634,-7.686093,7.983564,-1.527623,-1.113048,0.248642,0.000000,0.000000,0.000000,-1.927949,-7.749645,4.822271,-1.401204,-0.459504,-0.256418,0.000000,0.000000,0.000000
0.208000,-0.639071,-7.686129,7.973595,-1.538987,-1.108025,0.250558,0.000000,0.000000,0.000000,-1.909748,-7.748594,4.807669,-1.411775,-0.464774,-0.260602,0.000000,0.000000,0.000000
0.208000,-0.633507,-7.686164,7.963625,-1.550352,-1.103002,0.252474,0.000000,0.000000,0.000000,-1.891547,-7.747543,4.793066,-1.422346,-0.470044,-0.264785,0.000000,0.000000,0.000000
0.209000,-0.627944,-7.686200,7.953656,-1.561715,-1.097979,0.254390,0.000000,0.000000,0.000000,-1.873346,-7.746493,4.778463,-1.432918,-0.475314,-0.268969,0.000000,0.000000,0.000000
0.209000,-0.628358,-7.682091,7.938478,-1.568418,-1.095301,0.255611,0.000000,0.000000,0.000000,-1.849485,-7.750345,4.767871,-1.442508,-0.478185,-0.273226,0.000000,0.000000,0.000000
0.210000,-0.628773,-7.677982,7.923299,-1.575120,-1.092624,0.256832,0.000000,0.000000,0.000000,-1.825625,-7.754198,4.757280,-1.452098,-0.481055,-0.277483,0.000000,0.000000,0.000000
0.210000,-0.629188,-7.673873,7.908121,-1.581822,-1.089946,0.258052,0.000000,0.000000,0.000000,-1.801764,-7.758050,4.746688,-1.461688,-0.483925,-0.281739,0.000000,0.000000,0.000000
0.211000,-0.629603,-7.669764,7.892942,-1.588524,-1.087268,0.259273,0.000000,0.000000,0.000000,-1.777904,-7.761903,4.736096,-1.471279,-0.486795,-0.285996,0.000000,0.000000,0.000000
0.211000,-0.630018,-7.665655,7.877764,-1.595227,-1.084590,0.260494,0.000000,0.000000,0.000000,-1.754043,-7.765756,4.725504,-1.480869,-0.489665,-0.290253,0.000000,0.000000,0.000000
0.212000,-0.630433,-7.661546,7.862586,-1.601929,-1.081912,0.261714,0.000000,0.000000,0.000000,-1.730183,-7.769608,4.714912,-1.490459,-0.492535,-0.294510,0.000000,0.000000,0.000000
0.212000,-0.630848,-7.657436,7.847408,-1.608631,-1.079235,0.262935,0.000000,0.000000,0.000000,-1.706322,-7.773461,4.704320,-1.500049,-0.495405,-0.298767,0.000000,0.000000,0.000000
0.213000,-0.631263,-7.653327,7.832230,-1.615333,-1.076557,0.264156,0.000000,0.000000,0.000000,-1.682462,-7.777314,4.693729,-1.509639,-0.498276,-0.303024,0.000000,0.000000,0.000000
0.213000,-0.631677,-7.649218,7.817051,-1.622036,-1.073879,0.265376,0.000000,0.000000,0.000000,-1.658601,-7.781166,4.683137,-1.519229,-0.501146,-0.307281,0.000000,0.000000,0.000000
0.214000,-0.632092,-7.645109,7.801873,-1.628738,-1.071201,0.266597,0.000000,0.000000,0.000000,-1.634741,-7.785019,4.672545,-1.528819,-0.504016,-0.311538,0.000000,0.000000,0.000000
0.214000,-0.632507,-7.641000,7.786695,-1.635440,-1.068523,0.267817,0.000000,0.000000,0.000000,-1.610880,-7.788871,4.661953,-1.538410,-0.506886,-0.315795,0.000000,0.000000,0.000000
0.215000,-0.632922,-7.636891,7.771516,-1.642142,-1.065846,0.269038,0.000000,0.000000,0.000000,-1.587020,-7.792724,4.651361,-1.548000,-0.509756,-0.320052,0.000000,0.000000,0.000000
0.215000,-0.633337,-7.632782,7.756338,-1.648845,-1.063168,0.270259,0.000000,0.000000,0.000000,-1.563160,-7.796576,4.640769,-1.557590,-0.512626,-0.324308,0.000000,0.000000,0.000000
0.216000,-0.631648,-7.629651,7.741495,-1.658766,-1.060053,0.271742,0.000000,0.000000,0.000000,-1.543929,-7.800332,4.630324,-1.566980,-0.514617,-0.328522,0.000000,0.000000,0.000000
0.216000,-0.627856,-7.627498,7.726988,-1.671907,-1.056500,0.273487,0.000000,0.000000,0.000000,-1.529329,-7.803991,4.620024,-1.576171,-0.515729,-0.332691,0.000000,0.000000,0.000000
0.217000,-0.624063,-7.625346,7.712481,-1.685047,-1.052948,0.275232,0.000000,0.000000,0.000000,-1.514728,-7.807649,4.609725,-1.585361,-0.516840,-0.336861,0.000000,0.000000,0.000000
0.217000,-0.620271,-7.623193,7.697975,-1.698188,-1.049396,0.276977,0.000000,0.000000,0.000000,-1.500128,-7.811308,4.599425,-1.594552,-0.517952,-0.341031,0.000000,0.000000,0.000000
0.218000,-0.616479,-7.621040,7.683468,-1.711328,-1.045843,0.278723,0.000000,0.000000,0.000000,-1.485528,-7.814966,4.589126,-1.603742,-0.519063,-0.345200,0.000000,0.000000,0.000000
0.218000,-0.612686,-7.618887,7.668961,-1.724469,-1.042291,0.280468,0.000000,0.000000,0.000000,-1.470927,-7.818625,4.578826,-1.612933,-0.520175,-0.349370,0.000000,0.000000,0.000000
0.219000,-0.608894,-7.616735,7.654454,-1.737609,-1.038739,0.282213,0.000000,0.000000,0.000000,-1.456327,-7.822283,4.568526,-1.622124,-0.521286,-0.353539,0.000000,0.000000,0.000000
0.220000,-0.605102,-7.614582,7.639947,-1.750750,-1.035186,0.283958,0.000000,0.000000,0.000000,-1.441726,-7.825942,4.558227,-1.631314,-0.522398,-0.357709,0.000000,0.000000,0.000000
0.220000,-0.601309,-7.612429,7.625441,-1.763890,-1.031634,0.285703,0.000000,0.000000,0.000000,-1.427126,-7.829600,4.547927,-1.640505,-0.523510,-0.361879,0.000000,0.000000,0.000000
0.221000,-0.597517,-7.610276,7.610933,-1.777031,-1.028082,0.287449,0.000000,0.000000,0.000000,-1.412526,-7.833259,4.537628,-1.649695,-0.524621,-0.366048,0.000000,0.000000,0.000000
0.221000,-0.593724,-7.608124,7.596426,-1.790171,-1.024529,0.289194,0.000000,0.000000,0.000000,-1.397925,-7.836917,4.527328,-1.658886,-0.525733,-0.370218,0.000000,0.000000,0.000000
0.222000,-0.589932,-7.605971,7.581920,-1.803312,-1.020977,0.290939,0.000000,0.000000,0.000000,-1.383325,-7.840576,4.517029,-1.668076,-0.526844,-0.374387,0.000000,0.000000,0.000000
0.222000,-0.586140,-7.603818,7.567413,-1.816452,-1.017425,0.292684,0.000000,0.000000,0.000000,-1.368725,-7.844234,4.506729,-1.677267,-0.527956,-0.378557,0.000000,0.000000,0.000000
0.223000,-0.582347,-7.601665,7.552906,-1.829593,-1.013872,0.294429,0.000000,0.000000,0.000000,-1.354124,-7.847893,4.496429,-1.686457,-0.529067,-0.382727,0.000000,0.000000,0.000000
0.223000,-0.575082,-7.599133,7.534009,-1.843445,-1.012440,0.296299,0.000000,0.000000,0.000000,-1.353183,-7.857604,4.481202,-1.695164,-0.529236,-0.385657,0.000000,0.000000,0.000000
0.224000,-0.567816,-7.596601,7.515112,-1.857298,-1.011008,0.298170,0.000000,0.000000,0.000000,-1.352241,-7.867314,4.465975,-1.703871,-0.529405,-0.388587,0.000000,0.000000,0.000000
0.224000,-0.560550,-7.594069,7.496215,-1.871150,-1.009575,0.300040,0.000000,0.000000,0.000000,-1.351300,-7.877025,4.450747,-1.712577,-0.529573,-0.391517,0.000000,0.000000,0.000000
0.225000,-0.553284,-7.591537,7.477318,-1.885003,-1.008143,0.301910,0.000000,0.000000,0.000000,-1.350359,-7.886735,4.435520,-1.721284,-0.529742,-0.394447,0.000000,0.000000,0.000000
0.225000,-0.546019,-7.589005,7.458421,-1.898855,-1.006711,0.303780,0.000000,0.000000,0.000000,-1.349417,-7.896446,4.420292,-1.729991,-0.529910,-0.397377,0.000000,0.000000,0.000000
0.226000,-0.538753,-7.586473,7.439524,-1.912708,-1.005278,0.305650,0.000000,0.000000,0.000000,-1.348476,-7.906157,4.405065,-1.738697,-0.530079,-0.400308,0.000000,0.000000,0.000000
0.226000,-0.531487,-7.583942,7.420627,-1.926560,-1.003846,0.307520,0.000000,0.000000,0.000000,-1.347535,-7.915867,4.389838,-1.747404,-0.530247,-0.403238,0.000000,0.000000,0.000000
0.227000,-0.524222,-7.581410,7.401730,-1.940413,-1.002413,0.309390,0.000000,0.000000,0.000000,-1.346593,-7.925578,4.374610,-1.756111,-0.530416,-0.406168,0.000000,0.000000,0.000000
0.227000,-0.516956,-7.578878,7.382833,-1.954265,-1.000981,0.311261,0.000000,0.000000,0.000000,-1.345652,-7.935288,4.359383,-1.764817,-0.530585,-0.409098,0.000000,0.000000,0.000000
0.228000,-0.509690,-7.576346,7.363935,-1.968118,-0.999549,0.313131,0.000000,0.000000,0.000000,-1.344710,-7.944999,4.344156,-1.773524,-0.530753,-0.412028,0.000000,0.000000,0.000000
0.228000,-0.502424,-7.573814,7.345038,-1.981971,-0.998116,0.315001,0.000000,0.000000,0.000000,-1.343769,-7.954710,4.328928,-1.782231,-0.530922,-0.414958,0.000000,0.000000,0.000000
0.229000,-0.495159,-7.571282,7.326141,-1.995823,-0.996684,0.316871,0.000000,0.000000,0.000000,-1.342828,-7.964420,4.313701,-1.790937,-0.531090,-0.417888,0.000000,0.000000,0.000000
0.229000,-0.487893,-7.568750,7.307244,-2.009676,-0.995252,0.318741,0.000000,0.000000,0.000000,-1.341886,-7.974131,4.298473,-1.799644,-0.531259,-0.420819,0.000000,0.000000,0.000000
0.230000,-0.479386,-7.565839,7.287785,-2.023362,-0.994246,0.320443,0.000000,0.000000,0.000000,-1.341684,-7.982221,4.283583,-1.808043,-0.531520,-0.423330,0.000000,0.000000,0.000000
0.230000,-0.469637,-7.562548,7.267764,-2.036883,-0.993667,0.321976,0.000000,0.000000,0.000000,-1.342222,-7.988690,4.269029,-1.816136,-0.531873,-0.425424,0.000000,0.000000,0.000000
0.231000,-0.459889,-7.559258,7.247743,-2.050404,-0.993088,0.323509,0.000000,0.000000,0.000000,-1.342760,-7.995160,4.254476,-1.824228,-0.532227,-0.427517,0.000000,0.000000,0.000000
0.231000,-0.450140,-7.555967,7.227721,-2.063925,-0.992509,0.325042,0.000000,0.000000,0.000000,-1.343297,-8.001629,4.239922,-1.832320,-0.532580,-0.429610,0.000000,0.000000,0.000000
0.232000,-0.440392,-7.552677,7.207700,-2.077445,-0.991930,0.326575,0.000000,0.000000,0.000000,-1.343835,-8.008098,4.225368,-1.840413,-0.532934,-0.431703,0.000000,0.000000,0.000000
0.232000,-0.430643,-7.549387,7.187679,-2.090966,-0.991351,0.328108,0.000000,0.000000,0.000000,-1.344372,-8.014567,4.210814,-1.848505,-0.533287,-0.433796,0.000000,0.000000,0.000000
0.233000,-0.420895,-7.546096,7.167657,-2.104487,-0.990771,0.329641,0.000000,0.000000,0.000000,-1.344910,-8.021036,4.196261,-1.856597,-0.533641,-0.435890,0.000000,0.000000,0.000000
0.233000,-0.411146,-7.542806,7.147636,-2.118007,-0.990192,0.331174,0.000000,0.000000,0.000000,-1.345448,-8.027506,4.181707,-1.864690,-0.533994,-0.437983,0.000000,0.000000,0.000000
0.234000,-0.401398,-7.539515,7.127615,-2.131528,-0.989613,0.332707,0.000000,0.000000,0.000000,-1.345985,-8.033975,4.167154,-1.872782,-0.534348,-0.440076,0.000000,0.000000,0.000000
0.234000,-0.391649,-7.536225,7.107594,-2.145049,-0.989034,0.334240,0.000000,0.000000,0.000000,-1.346523,-8.040444,4.152600,-1.880874,-0.534701,-0.442169,0.000000,0.000000,0.000000
0.234000,-0.381901,-7.532935,7.087573,-2.158570,-0.988455,0.335773,0.000000,0.000000,0.000000,-1.347060,-8.046913,4.138047,-1.888967,-0.535055,-0.444263,0.000000,0.000000,0.000000
0.235000,-0.372152,-7.529644,7.067551,-2.172091,-0.987876,0.337306,0.000000,0.000000,0.000000,-1.347598,-8.053383,4.123493,-1.897059,-0.535408,-0.446356,0.000000,0.000000,0.000000
0.235000,-0.362404,-7.526354,7.047530,-2.185611,-0.987297,0.338838,0.000000,0.000000,0.000000,-1.348136,-8.059852,4.108939,-1.905151,-0.535762,-0.448449,0.000000,0.000000,0.000000
0.236000,-0.352655,-7.523063,7.027509,-2.199132,-0.986718,0.340371,0.000000,0.000000,0.000000,-1.348673,-8.066321,4.094386,-1.913244,-0.536115,-0.450542,0.000000,0.000000,0.000000
0.236000,-0.340792,-7.518281,7.009368,-2.212106,-0.985608,0.341290,0.000000,0.000000,0.000000,-1.347145,-8.069478,4.084454,-1.920914,-0.536993,-0.453261,0.000000,0.000000,0.000000
0.237000,-0.328929,-7.513497,6.991227,-2.225081,-0.984499,0.342209,0.000000,0.000000,0.000000,-1.345617,-8.072635,4.074522,-1.928585,-0.537872,-0.455979,0.000000,0.000000,0.000000
0.237000,-0.317065,-7.508715,6.973086,-2.238055,-0.983389,0.343128,0.000000,0.000000,0.000000,-1.344089,-8.075791,4.064591,-1.936256,-0.538750,-0.458698,0.000000,0.000000,0.000000
0.238000,-0.305202,-7.503932,6.954946,-2.251030,-0.982279,0.344046,0.000000,0.000000,0.000000,-1.342561,-8.078948,4.054660,-1.943927,-0.539628,-0.461416,0.000000,0.000000,0.000000
0.238000,-0.293338,-7.499149,6.936805,-2.264004,-0.981170,0.344965,0.000000,0.000000,0.000000,-1.341033,-8.082105,4.044728,-1.951598,-0.540506,-0.464135,0.000000,0.000000,0.000000
0.239000,-0.281475,-7.494366,6.918664,-2.276979,-0.980060,0.345884,0.000000,0.000000,0.000000,-1.339505,-8.085261,4.034797,-1.959269,-0.541384,-0.466853,0.000000,0.000000,0.000000
0.239000,-0.269612,-7.489583,6.900523,-2.289953,-0.978951,0.346802,0.000000,0.000000,0.000000,-1.337977,-8.088417,4.024865,-1.966940,-0.542262,-0.469571,0.000000,0.000000,0.000000
0.240000,-0.257748,-7.484801,6.882382,-2.302928,-0.977841,0.347721,0.000000,0.000000,0.000000,-1.336449,-8.091574,4.014934,-1.974611,-0.543140,-0.472290,0.000000,0.000000,0.000000
0.240000,-0.245885,-7.480018,6.864241,-2.315902,-0.976732,0.348640,0.000000,0.000000,0.000000,-1.334921,-8.094730,4.005002,-1.982282,-0.544018,-0.475008,0.000000,0.000000,0.000000
0.241000,-0.234022,-7.475235,6.846100,-2.328877,-0.975622,0.349559,0.000000,0.000000,0.000000,-1.333393,-8.097887,3.995071,-1.989953,-0.544896,-0.477727,0.000000,0.000000,0.000000
0.241000,-0.222158,-7.470452,6.827960,-2.341851,-0.974512,0.350477,0.000000,0.000000,0.000000,-1.331864,-8.101044,3.985139,-1.997624,-0.545774,-0.480445,0.000000,0.000000,0.000000
0.242000,-0.210295,-7.465669,6.809819,-2.354826,-0.973403,0.351396,0.000000,0.000000,0.000000,-1.330336,-8.104200,3.975208,-2.005295,-0.546652,-0.483164,0.000000,0.000000,0.000000
0.242000,-0.198431,-7.460886,6.791678,-2.367800,-0.972293,0.352315,0.000000,0.000000,0.000000,-1.328808,-8.107357,3.965276,-2.012966,-0.547530,-0.485882,0.000000,0.000000,0.000000
0.243000,-0.188195,-7.454740,6.768126,-2.380566,-0.969988,0.353047,0.000000,0.000000,0.000000,-1.329066,-8.112414,3.955100,-2.020221,-0.548498,-0.488866,0.000000,0.000000,0.000000
0.243000,-0.179587,-7.447228,6.739161,-2.393121,-0.966486,0.353594,0.000000,0.000000,0.000000,-1.331109,-8.119372,3.944677,-2.027060,-0.549555,-0.492114,0.000000,0.000000,0.000000
0.244000,-0.170978,-7.439718,6.710196,-2.405678,-0.962984,0.354140,0.000000,0.000000,0.000000,-1.333153,-8.126329,3.934255,-2.033899,-0.550613,-0.495362,0.000000,0.000000,0.000000
0.244000,-0.162370,-7.432207,6.681232,-2.418233,-0.959482,0.354686,0.000000,0.000000,0.000000,-1.335196,-8.133287,3.923833,-2.040738,-0.551670,-0.498611,0.000000,0.000000,0.000000
0.245000,-0.153761,-7.424695,6.652267,-2.430789,-0.955980,0.355233,0.000000,0.000000,0.000000,-1.337239,-8.140245,3.913411,-2.047577,-0.552728,-0.501859,0.000000,0.000000,0.000000
0.245000,-0.145152,-7.417184,6.623303,-2.443345,-0.952479,0.355779,0.000000,0.000000,0.000000,-1.339283,-8.147203,3.902988,-2.054416,-0.553786,-0.505108,0.000000,0.000000,0.000000
0.246000,-0.136544,-7.409673,6.594338,-2.455901,-0.948977,0.356325,0.000000,0.000000,0.000000,-1.341326,-8.154161,3.892566,-2.061255,-0.554843,-0.508356,0.000000,0.000000,0.000000
0.246000,-0.127935,-7.402163,6.565374,-2.468457,-0.945475,0.356872,0.000000,0.000000,0.000000,-1.343370,-8.161119,3.882144,-2.068094,-0.555901,-0.511605,0.000000,0.000000,0.000000
0.247000,-0.119326,-7.394651,6.536409,-2.481013,-0.941973,0.357418,0.000000,0.000000,0.000000,-1.345413,-8.168077,3.871722,-2.074933,-0.556958,-0.514853,0.000000,0.000000,0.000000
0.247000,-0.110718,-7.387140,6.507445,-2.493569,-0.938471,0.357965,0.000000,0.000000,0.000000,-1.347456,-8.175035,3.861300,-2.081772,-0.558016,-0.518102,0.000000,0.000000,0.000000
0.248000,-0.102109,-7.379629,6.478480,-2.506125,-0.934970,0.358511,0.000000,0.000000,0.000000,-1.349500,-8.181993,3.850878,-2.088611,-0.559073,-0.521350,0.000000,0.000000,0.000000
0.248000,-0.093500,-7.372118,6.449516,-2.518681,-0.931468,0.359057,0.000000,0.000000,0.000000,-1.351543,-8.188950,3.840455,-2.095450,-0.560131,-0.524598,0.000000,0.000000,0.000000
0.249000,-0.084892,-7.364607,6.420551,-2.531237,-0.927966,0.359604,0.000000,0.000000,0.000000,-1.353587,-8.195908,3.830033,-2.102289,-0.561188,-0.527847,0.000000,0.000000,0.000000
0.249000,-0.076283,-7.357096,6.391587,-2.543793,-0.924464,0.360150,0.000000,0.000000,0.000000,-1.355630,-8.202866,3.819611,-2.109128,-0.562246,-0.531095,0.000000,0.000000,0.000000
0.250000,-0.075855,-7.344439,6.356146,-2.556621,-0.918193,0.360618,0.000000,0.000000,0.000000,-1.362655,-8.202411,3.802463,-2.114881,-0.563640,-0.534040,0.000000,0.000000,0.000000
0.251000,-0.075427,-7.331781,6.320705,-2.569448,-0.911921,0.361085,0.000000,0.000000,0.000000,-1.369679,-8.201956,3.785315,-2.120633,-0.565034,-0.536985,0.000000,0.000000,0.000000
0.251000,-0.074998,-7.319124,6.285264,-2.582276,-0.905649,0.361553,0.000000,0.000000,0.000000,-1.376704,-8.201501,3.768167,-2.126386,-0.566428,-0.539930,0.000000,0.000000,0.000000
0.252000,-0.074570,-7.306466,6.249824,-2.595104,-0.899377,0.362020,0.000000,0.000000,0.000000,-1.383729,-8.201046,3.751018,-2.132138,-0.567822,-0.542875,0.000000,0.000000,0.000000
0.252000,-0.074142,-7.293808,6.214383,-2.607932,-0.893105,0.362488,0.000000,0.000000,0.000000,-1.390753,-8.200590,3.733870,-2.137891,-0.569217,-0.545821,0.000000,0.000000,0.000000
0.253000,-0.073713,-7.281151,6.178942,-2.620759,-0.886833,0.362955,0.000000,0.000000,0.000000,-1.397778,-8.200135,3.716722,-2.143644,-0.570611,-0.548766,0.000000,0.000000,0.000000
0.253000,-0.073285,-7.268493,6.143502,-2.633587,-0.880562,0.363423,0.000000,0.000000,0.000000,-1.404803,-8.199680,3.699574,-2.149397,-0.572005,-0.551711,0.000000,0.000000,0.000000
0.254000,-0.072857,-7.255836,6.108061,-2.646415,-0.874290,0.363890,0.000000,0.000000,0.000000,-1.411828,-8.199225,3.682426,-2.155149,-0.573399,-0.554656,0.000000,0.000000,0.000000
0.254000,-0.072428,-7.243178,6.072620,-2.659243,-0.868018,0.364358,0.000000,0.000000,0.000000,-1.418852,-8.198771,3.665278,-2.160902,-0.574793,-0.557601,0.000000,0.000000,0.000000
0.255000,-0.072000,-7.230521,6.037179,-2.672070,-0.861746,0.364825,0.000000,0.000000,0.000000,-1.425877,-8.198316,3.648130,-2.166655,-0.576187,-0.560546,0.000000,0.000000,0.000000
0.255000,-0.071572,-7.217863,6.001739,-2.684898,-0.855474,0.365293,0.000000,0.000000,0.000000,-1.432902,-8.197861,3.630981,-2.172407,-0.577582,-0.563491,0.000000,0.000000,0.000000
0.256000,-0.071143,-7.205205,5.966298,-2.697726,-0.849203,0.365760,0.000000,0.000000,0.000000,-1.439926,-8.197406,3.613833,-2.178160,-0.578976,-0.566436,0.000000,0.000000,0.000000
0.256000,-0.070715,-7.192548,5.930857,-2.710553,-0.842931,0.366228,0.000000,0.000000,0.000000,-1.446951,-8.196951,3.596685,-2.183913,-0.580370,-0.569381,0.000000,0.000000,0.000000
0.257000,-0.069730,-7.182953,5.904715,-2.723172,-0.835160,0.366667,0.000000,0.000000,0.000000,-1.461926,-8.191035,3.578147,-2.191186,-0.580996,-0.568736,0.000000,0.000000,0.000000
0.257000,-0.068189,-7.176422,5.887870,-2.735580,-0.825889,0.367078,0.000000,0.000000,0.000000,-1.484852,-8.179661,3.558220,-2.199979,-0.580854,-0.564500,0.000000,0.000000,0.000000
0.258000,-0.066647,-7.169890,5.871026,-2.747989,-0.816619,0.367488,0.000000,0.000000,0.000000,-1.507779,-8.168286,3.538292,-2.208773,-0.580713,-0.560265,0.000000,0.000000,0.000000
0.258000,-0.065106,-7.163358,5.854181,-2.760398,-0.807349,0.367899,0.000000,0.000000,0.000000,-1.530704,-8.156911,3.518365,-2.217566,-0.580571,-0.556029,0.000000,0.000000,0.000000
0.259000,-0.063564,-7.156826,5.837337,-2.772807,-0.798078,0.368309,0.000000,0.000000,0.000000,-1.553631,-8.145536,3.498437,-2.226359,-0.580429,-0.551794,0.000000,0.000000,0.000000
0.259000,-0.062023,-7.150295,5.820492,-2.785215,-0.788808,0.368720,0.000000,0.000000,0.000000,-1.576557,-8.134162,3.478510,-2.235153,-0.580287,-0.547558,0.000000,0.000000,0.000000
0.260000,-0.060482,-7.143763,5.803647,-2.797624,-0.779538,0.369130,0.000000,0.000000,0.000000,-1.599483,-8.122787,3.458582,-2.243946,-0.580146,-0.543322,0.000000,0.000000,0.000000
0.260000,-0.058940,-7.137231,5.786803,-2.810033,-0.770267,0.369541,0.000000,0.000000,0.000000,-1.622409,-8.111412,3.438655,-2.252740,-0.580004,-0.539087,0.000000,0.000000,0.000000
0.261000,-0.057399,-7.130699,5.769958,-2.822442,-0.760997,0.369951,0.000000,0.000000,0.000000,-1.645335,-8.100038,3.418727,-2.261533,-0.579862,-0.534851,0.000000,0.000000,0.000000
0.261000,-0.055857,-7.124167,5.753114,-2.834851,-0.751727,0.370362,0.000000,0.000000,0.000000,-1.668261,-8.088662,3.398800,-2.270326,-0.579720,-0.530616,0.000000,0.000000,0.000000
0.262000,-0.054316,-7.117636,5.736269,-2.847259,-0.742457,0.370772,0.000000,0.000000,0.000000,-1.691187,-8.077288,3.378872,-2.279120,-0.579578,-0.526380,0.000000,0.000000,0.000000
0.262000,-0.052774,-7.111104,5.719424,-2.859668,-0.733186,0.371183,0.000000,0.000000,0.000000,-1.714113,-8.065913,3.358945,-2.287913,-0.579437,-0.522145,0.000000,0.000000,0.000000
0.263000,-0.051233,-7.104572,5.702580,-2.872077,-0.723916,0.371593,0.000000,0.000000,0.000000,-1.737039,-8.054538,3.339017,-2.296707,-0.579295,-0.517909,0.000000,0.000000,0.000000
0.263000,-0.049691,-7.098041,5.685735,-2.884485,-0.714646,0.372004,0.000000,0.000000,0.000000,-1.759965,-8.043163,3.319090,-2.305500,-0.579153,-0.513674,0.000000,0.000000,0.000000
0.264000,-0.046524,-7.089798,5.656588,-2.895119,-0.701352,0.372634,0.000000,0.000000,0.000000,-1.749351,-8.033372,3.290133,-2.312469,-0.577213,-0.507882,0.000000,0.000000,0.000000
0.264000,-0.043356,-7.081555,5.627440,-2.905753,-0.688059,0.373265,0.000000,0.000000,0.000000,-1.738737,-8.023581,3.261177,-2.319438,-0.575272,-0.502090,0.000000,0.000000,0.000000
0.265000,-0.040188,-7.073312,5.598293,-2.916387,-0.674766,0.373896,0.000000,0.000000,0.000000,-1.728124,-8.013790,3.232221,-2.326407,-0.573331,-0.496298,0.000000,0.000000,0.000000
0.265000,-0.037020,-7.065070,5.569145,-2.927021,-0.661473,0.374526,0.000000,0.000000,0.000000,-1.717510,-8.003999,3.203264,-2.333376,-0.571391,-0.490506,0.000000,0.000000,0.000000
0.266000,-0.033853,-7.056827,5.539998,-2.937655,-0.648179,0.375157,0.000000,0.000000,0.000000,-1.706896,-7.994207,3.174308,-2.340345,-0.569450,-0.484714,0.000000,0.000000,0.000000
0.266000,-0.030685,-7.048584,5.510850,-2.948288,-0.634886,0.375788,0.000000,0.000000,0.000000,-1.696282,-7.984416,3.145351,-2.347314,-0.567510,-0.478922,0.000000,0.000000,0.000000
0.267000,-0.027517,-7.040341,5.481702,-2.958922,-0.621593,0.376418,0.000000,0.000000,0.000000,-1.685668,-7.974625,3.116395,-2.354283,-0.565569,-0.473130,0.000000,0.000000,0.000000
0.267000,-0.024349,-7.032098,5.452555,-2.969556,-0.608300,0.377049,0.000000,0.000000,0.000000,-1.675055,-7.964834,3.087439,-2.361252,-0.563629,-0.467338,0.000000,0.000000,0.000000
0.268000,-0.021182,-7.023856,5.423408,-2.980190,-0.595006,0.377680,0.000000,0.000000,0.000000,-1.664441,-7.955043,3.058482,-2.368221,-0.561688,-0.461546,0.000000,0.000000,0.000000
0.268000,-0.018014,-7.015613,5.394260,-2.990824,-0.581713,0.378310,0.000000,0.000000,0.000000,-1.653827,-7.945251,3.029526,-2.375190,-0.559748,-0.455754,0.000000,0.000000,0.000000
0.269000,-0.014846,-7.007370,5.365112,-3.001458,-0.568420,0.378941,0.000000,0.000000,0.000000,-1.643214,-7.935461,3.000569,-2.382159,-0.557807,-0.449962,0.000000,0.000000,0.000000
0.269000,-0.011679,-6.999127,5.335965,-3.012092,-0.555127,0.379571,0.000000,0.000000,0.000000,-1.632600,-7.925669,2.971613,-2.389127,-0.555866,-0.444171,0.000000,0.000000,0.000000
0.270000,-0.008511,-6.990884,5.306817,-3.022725,-0.541833,0.380202,0.000000,0.000000,0.000000,-1.621986,-7.915878,2.942657,-2.396096,-0.553926,-0.438379,0.000000,0.000000,0.000000
0.270000,-0.005803,-6.984384,5.274631,-3.032603,-0.527419,0.380811,0.000000,0.000000,0.000000,-1.592297,-7.919049,2.954375,-2.400604,-0.552695,-0.434799,0.000000,0.000000,0.000000
0.271000,-0.003554,-6.979626,5.239404,-3.041725,-0.511882,0.381398,0.000000,0.000000,0.000000,-1.543534,-7.935182,3.006767,-2.402651,-0.552172,-0.433431,0.000000,0.000000,0.000000
0.271000,-0.001305,-6.974867,5.204178,-3.050846,-0.496346,0.381985,0.000000,0.000000,0.000000,-1.494770,-7.951315,3.059159,-2.404697,-0.551650,-0.432063,0.000000,0.000000,0.000000
0.272000,0.000944,-6.970109,5.168952,-3.059968,-0.480810,0.382572,0.000000,0.000000,0.000000,-1.446007,-7.967448,3.111552,-2.406743,-0.551128,-0.430695,0.000000,0.000000,0.000000
0.272000,0.003192,-6.965351,5.133726,-3.069090,-0.465274,0.383159,0.000000,0.000000,0.000000,-1.397243,-7.983581,3.163944,-2.408790,-0.550606,-0.429327,0.000000,0.000000,0.000000
0.273000,0.005441,-6.960593,5.098500,-3.078211,-0.449737,0.383746,0.000000,0.000000,0.000000,-1.348480,-7.999714,3.216336,-2.410836,-0.550084,-0.427958,0.000000,0.000000,0.000000
0.273000,0.007690,-6.955834,5.063273,-3.087333,-0.434201,0.384333,0.000000,0.000000,0.000000,-1.299716,-8.015847,3.268729,-2.412882,-0.549562,-0.426590,0.000000,0.000000,0.000000
0.274000,0.009939,-6.951076,5.028048,-3.096455,-0.418665,0.384920,0.000000,0.000000,0.000000,-1.250952,-8.031980,3.321121,-2.414929,-0.549040,-0.425222,0.000000,0.000000,0.000000
0.274000,0.012187,-6.946318,4.992821,-3.105576,-0.403129,0.385507,0.000000,0.000000,0.000000,-1.202189,-8.048113,3.373514,-2.416975,-0.548518,-0.423854,0.000000,0.000000,0.000000
0.275000,0.014436,-6.941560,4.957595,-3.114698,-0.387592,0.386094,0.000000,0.000000,0.000000,-1.153425,-8.064245,3.425906,-2.419021,-0.547996,-0.422486,0.000000,0.000000,0.000000
0.275000,0.016685,-6.936801,4.922369,-3.123820,-0.372056,0.386681,0.000000,0.000000,0.000000,-1.104662,-8.080379,3.478299,-2.421068,-0.547474,-0.421118,0.000000,0.000000,0.000000
0.276000,0.018934,-6.932043,4.887143,-3.132941,-0.356520,0.387268,0.000000,0.000000,0.000000,-1.055898,-8.096512,3.530691,-2.423114,-0.546952,-0.419750,0.000000,0.000000,0.000000
0.276000,0.021182,-6.927285,4.851917,-3.142063,-0.340983,0.387855,0.000000,0.000000,0.000000,-1.007135,-8.112644,3.583083,-2.425160,-0.546430,-0.418382,0.000000,0.000000,0.000000
0.277000,0.023431,-6.922527,4.816690,-3.151185,-0.325447,0.388442,0.000000,0.000000,0.000000,-0.958371,-8.128778,3.635476,-2.427207,-0.545908,-0.417014,0.000000,0.000000,0.000000
0.277000,0.017830,-6.915395,4.775142,-3.156035,-0.316758,0.388453,0.000000,0.000000,0.000000,-0.967502,-8.144547,3.657880,-2.414684,-0.543618,-0.424404,0.000000,0.000000,0.000000
0.278000,0.012228,-6.908263,4.733593,-3.160885,-0.308069,0.388464,0.000000,0.000000,0.000000,-0.976633,-8.160317,3.680283,-2.402162,-0.541329,-0.431794,0.000000,0.000000,0.000000
0.278000,0.006627,-6.901132,4.692045,-3.165735,-0.299380,0.388475,0.000000,0.000000,0.000000,-0.985764,-8.176088,3.702687,-2.389640,-0.539040,-0.439184,0.000000,0.000000,0.000000
0.279000,0.001025,-6.894000,4.650496,-3.170586,-0.290690,0.388486,0.000000,0.000000,0.000000,-0.994895,-8.191858,3.725091,-2.377117,-0.536750,-0.446574,0.000000,0.000000,0.000000
0.279000,-0.004577,-6.886868,4.608948,-3.175436,-0.282001,0.388497,0.000000,0.000000,0.000000,-1.004026,-8.207628,3.747495,-2.364595,-0.534461,-0.453964,0.000000,0.000000,0.000000
0.280000,-0.010178,-6.879736,4.567399,-3.180286,-0.273312,0.388508,0.000000,0.000000,0.000000,-1.013157,-8.223398,3.769898,-2.352072,-0.532172,-0.461354,0.000000,0.000000,0.000000
0.280000,-0.015780,-6.872604,4.525851,-3.185137,-0.264623,0.388519,0.000000,0.000000,0.000000,-1.022288,-8.239169,3.792302,-2.339550,-0.529882,-0.468744,0.000000,0.000000,0.000000
0.281000,-0.021381,-6.865473,4.484302,-3.189987,-0.255934,0.388530,0.000000,0.000000,0.000000,-1.031420,-8.254939,3.814706,-2.327028,-0.527593,-0.476134,0.000000,0.000000,0.000000
0.281000,-0.026983,-6.858341,4.442753,-3.194837,-0.247244,0.388540,0.000000,0.000000,0.000000,-1.040551,-8.270709,3.837110,-2.314505,-0.525304,-0.483524,0.000000,0.000000,0.000000
0.281000,-0.032584,-6.851209,4.401205,-3.199687,-0.238555,0.388551,0.000000,0.000000,0.000000,-1.049682,-8.286479,3.859513,-2.301983,-0.523014,-0.490913,0.000000,0.000000,0.000000
0.282000,-0.038186,-6.844078,4.359656,-3.204538,-0.229866,0.388562,0.000000,0.000000,0.000000,-1.058813,-8.302249,3.881917,-2.289461,-0.520725,-0.498303,0.000000,0.000000,0.000000
0.282000,-0.043787,-6.836946,4.318108,-3.209388,-0.221177,0.388573,0.000000,0.000000,0.000000,-1.067944,-8.318020,3.904321,-2.276938,-0.518436,-0.505693,0.000000,0.000000,0.000000
0.283000,-0.049389,-6.829814,4.276559,-3.214238,-0.212488,0.388584,0.000000,0.000000,0.000000,-1.077075,-8.333790,3.926725,-2.264416,-0.516146,-0.513083,0.000000,0.000000,0.000000
0.283000,-0.054802,-6.820053,4.235024,-3.220979,-0.200706,0.388622,0.000000,0.000000,0.000000,-1.074408,-8.331627,3.888904,-2.254586,-0.506821,-0.517704,0.000000,0.000000,0.000000
0.284000,-0.060026,-6.807663,4.193502,-3.229610,-0.185833,0.388687,0.000000,0.000000,0.000000,-1.059943,-8.311532,3.790859,-2.247447,-0.490459,-0.519555,0.000000,0.000000,0.000000
0.284000,-0.065250,-6.795274,4.151980,-3.238240,-0.170959,0.388752,0.000000,0.000000,0.000000,-1.045478,-8.291437,3.692813,-2.240309,-0.474097,-0.521406,0.000000,0.000000,0.000000
0.285000,-0.070475,-6.782884,4.110459,-3.246871,-0.156086,0.388817,0.000000,0.000000,0.000000,-1.031013,-8.271342,3.594768,-2.233171,-0.457735,-0.523258,0.000000,0.000000,0.000000
0.285000,-0.075699,-6.770494,4.068937,-3.255502,-0.141213,0.388882,0.000000,0.000000,0.000000,-1.016549,-8.251247,3.496723,-2.226033,-0.441373,-0.525109,0.000000,0.000000,0.000000
0.286000,-0.080923,-6.758104,4.027415,-3.264133,-0.126339,0.388947,0.000000,0.000000,0.000000,-1.002084,-8.231153,3.398678,-2.218894,-0.425011,-0.526960,0.000000,0.000000,0.000000
0.286000,-0.086148,-6.745715,3.985893,-3.272763,-0.111466,0.389012,0.000000,0.000000,0.000000,-0.987619,-8.211058,3.300633,-2.211756,-0.408649,-0.528812,0.000000,0.000000,0.000000
0.287000,-0.091372,-6.733325,3.944372,-3.281394,-0.096592,0.389077,0.000000,0.000000,0.000000,-0.973154,-8.190963,3.202587,-2.204618,-0.392287,-0.530663,0.000000,0.000000,0.000000
0.287000,-0.096596,-6.720935,3.902850,-3.290025,-0.081719,0.389142,0.000000,0.000000,0.000000,-0.958689,-8.170868,3.104542,-2.197480,-0.375926,-0.532514,0.000000,0.000000,0.000000
0.288000,-0.101821,-6.708545,3.861328,-3.298656,-0.066846,0.389207,0.000000,0.000000,0.000000,-0.944224,-8.150772,3.006497,-2.190341,-0.359564,-0.534365,0.000000,0.000000,0.000000
0.288000,-0.107045,-6.696156,3.819807,-3.307287,-0.051972,0.389272,0.000000,0.000000,0.000000,-0.929760,-8.130677,2.908452,-2.183203,-0.343202,-0.536217,0.000000,0.000000,0.000000
0.289000,-0.112269,-6.683766,3.778285,-3.315917,-0.037099,0.389337,0.000000,0.000000,0.000000,-0.915295,-8.110582,2.810407,-2.176065,-0.326840,-0.538068,0.000000,0.000000,0.000000
0.289000,-0.117493,-6.671376,3.736763,-3.324548,-0.022225,0.389402,0.000000,0.000000,0.000000,-0.900830,-8.090487,2.712361,-2.168927,-0.310478,-0.539919,0.000000,0.000000,0.000000
0.290000,-0.122718,-6.658986,3.695241,-3.333179,-0.007352,0.389467,0.000000,0.000000,0.000000,-0.886365,-8.070393,2.614316,-2.161789,-0.294116,-0.541770,0.000000,0.000000,0.000000
0.290000,-0.135387,-6.646534,3.662866,-3.342307,0.001168,0.388164,0.000000,0.000000,0.000000,-0.897535,-8.049643,2.616117,-2.168000,-0.289129,-0.543176,0.000000,0.000000,0.000000
0.291000,-0.148056,-6.634082,3.630490,-3.351435,0.009688,0.386862,0.000000,0.000000,0.000000,-0.908705,-8.028893,2.617919,-2.174212,-0.284141,-0.544581,0.000000,0.000000,0.000000
0.291000,-0.160725,-6.621630,3.598115,-3.360563,0.018208,0.385559,0.000000,0.000000,0.000000,-0.919875,-8.008142,2.619720,-2.180424,-0.279154,-0.545987,0.000000,0.000000,0.000000
0.292000,-0.173394,-6.609178,3.565739,-3.369691,0.026728,0.384257,0.000000,0.000000,0.000000,-0.931045,-7.987392,2.621521,-2.186636,-0.274167,-0.547392,0.000000,0.000000,0.000000
0.292000,-0.186062,-6.596725,3.533364,-3.378819,0.035248,0.382955,0.000000,0.000000,0.000000,-0.942215,-7.966642,2.623322,-2.192847,-0.269180,-0.548797,0.000000,0.000000,0.000000
0.293000,-0.198731,-6.584273,3.500988,-3.387947,0.043768,0.381652,0.000000,0.000000,0.000000,-0.953385,-7.945892,2.625124,-2.199059,-0.264192,-0.550203,0.000000,0.000000,0.000000
0.293000,-0.211400,-6.571821,3.468613,-3.397075,0.052288,0.380350,0.000000,0.000000,0.000000,-0.964555,-7.925142,2.626925,-2.205271,-0.259205,-0.551608,0.000000,0.000000,0.000000
0.294000,-0.224069,-6.559369,3.436237,-3.406204,0.060808,0.379047,0.000000,0.000000,0.000000,-0.975725,-7.904392,2.628726,-2.211483,-0.254218,-0.553014,0.000000,0.000000,0.000000
0.294000,-0.236738,-6.546916,3.403862,-3.415332,0.069328,0.377745,0.000000,0.000000,0.000000,-0.986896,-7.883642,2.630527,-2.217695,-0.249230,-0.554419,0.000000,0.000000,0.000000
0.295000,-0.249407,-6.534464,3.371486,-3.424460,0.077848,0.376443,0.000000,0.000000,0.000000,-0.998066,-7.862892,2.632329,-2.223906,-0.244243,-0.555824,0.000000,0.000000,0.000000
0.295000,-0.262076,-6.522012,3.339111,-3.433588,0.086368,0.375140,0.000000,0.000000,0.000000,-1.009236,-7.842141,2.634130,-2.230118,-0.239256,-0.557230,0.000000,0.000000,0.000000
0.296000,-0.274745,-6.509560,3.306736,-3.442716,0.094888,0.373838,0.000000,0.000000,0.000000,-1.020406,-7.821391,2.635931,-2.236330,-0.234268,-0.558635,0.000000,0.000000,0.000000
0.296000,-0.287414,-6.497108,3.274360,-3.451844,0.103408,0.372535,0.000000,0.000000,0.000000,-1.031576,-7.800641,2.637733,-2.242542,-0.229281,-0.560041,0.000000,0.000000,0.000000
0.297000,-0.294414,-6.482051,3.241472,-3.460696,0.106996,0.370404,0.000000,0.000000,0.000000,-1.076315,-7.765171,2.619452,-2.250015,-0.225534,-0.554152,0.000000,0.000000,0.000000
0.297000,-0.295746,-6.464390,3.208070,-3.469271,0.105652,0.367444,0.000000,0.000000,0.000000,-1.154622,-7.714980,2.581091,-2.258751,-0.223026,-0.540969,0.000000,0.000000,0.000000
0.298000,-0.297078,-6.446729,3.174668,-3.477846,0.104308,0.364483,0.000000,0.000000,0.000000,-1.232930,-7.664789,2.542730,-2.267486,-0.220519,-0.527786,0.000000,0.000000,0.000000
0.298000,-0.298410,-6.429068,3.141267,-3.486422,0.102964,0.361523,0.000000,0.000000,0.000000,-1.311238,-7.614598,2.504368,-2.276222,-0.218011,-0.514603,0.000000,0.000000,0.000000
0.299000,-0.299742,-6.411407,3.107865,-3.494997,0.101620,0.358563,0.000000,0.000000,0.000000,-1.389546,-7.564407,2.466007,-2.284957,-0.215503,-0.501420,0.000000,0.000000,0.000000
0.299000,-0.301074,-6.393746,3.074464,-3.503572,0.100276,0.355602,0.000000,0.000000,0.000000,-1.467853,-7.514216,2.427645,-2.293693,-0.212996,-0.488238,0.000000,0.000000,0.000000
0.300000,-0.302406,-6.376085,3.041062,-3.512148,0.098932,0.352642,0.000000,0.000000,0.000000,-1.546161,-7.464025,2.389283,-2.302429,-0.210488,-0.475055,0.000000,0.000000,0.000000
0.300000,-0.303738,-6.358424,3.007661,-3.520723,0.097588,0.349681,0.000000,0.000000,0.000000,-1.624469,-7.413834,2.350922,-2.311164,-0.207981,-0.461872,0.000000,0.000000,0.000000
0.301000,-0.305070,-6.340763,2.974259,-3.529299,0.096244,0.346721,0.000000,0.000000,0.000000,-1.702776,-7.363643,2.312561,-2.319900,-0.205473,-0.448689,0.000000,0.000000,0.000000
0.301000,-0.306402,-6.323102,2.940858,-3.537874,0.094901,0.343761,0.000000,0.000000,0.000000,-1.781084,-7.313452,2.274199,-2.328635,-0.202966,-0.435506,0.000000,0.000000,0.000000
0.302000,-0.307734,-6.305440,2.907456,-3.546449,0.093557,0.340800,0.000000,0.000000,0.000000,-1.859392,-7.263261,2.235837,-2.337371,-0.200458,-0.422323,0.000000,0.000000,0.000000
0.302000,-0.309066,-6.287779,2.874054,-3.555025,0.092213,0.337840,0.000000,0.000000,0.000000,-1.937699,-7.213070,2.197476,-2.346107,-0.197950,-0.409140,0.000000,0.000000,0.000000
0.303000,-0.310398,-6.270118,2.840653,-3.563600,0.090869,0.334880,0.000000,0.000000,0.000000,-2.016007,-7.162879,2.159115,-2.354842,-0.195443,-0.395957,0.000000,0.000000,0.000000
0.303000,-0.311730,-6.252457,2.807251,-3.572175,0.089525,0.331919,0.000000,0.000000,0.000000,-2.094315,-7.112689,2.120753,-2.363578,-0.192935,-0.382775,0.000000,0.000000,0.000000
0.304000,-0.307242,-6.235836,2.777615,-3.575964,0.082846,0.328432,0.000000,0.000000,0.000000,-2.076642,-7.088986,2.123025,-2.379330,-0.172022,-0.348617,0.000000,0.000000,0.000000
0.304000,-0.302753,-6.219214,2.747979,-3.579752,0.076167,0.324944,0.000000,0.000000,0.000000,-2.058969,-7.065284,2.125297,-2.395082,-0.151109,-0.314460,0.000000,0.000000,0.000000
0.305000,-0.298265,-6.202592,2.718343,-3.583541,0.069488,0.321457,0.000000,0.000000,0.000000,-2.041297,-7.041582,2.127569,-2.410834,-0.130195,-0.280303,0.000000,0.000000,0.000000
0.305000,-0.293776,-6.185970,2.688707,-3.587329,0.062809,0.317970,0.000000,0.000000,0.000000,-2.023624,-7.017879,2.129841,-2.426586,-0.109282,-0.246146,0.000000,0.000000,0.000000
0.306000,-0.289288,-6.169349,2.659071,-3.591118,0.056131,0.314482,0.000000,0.000000,0.000000,-2.005951,-6.994177,2.132112,-2.442338,-0.088369,-0.211989,0.000000,0.000000,0.000000
0.306000,-0.284799,-6.152727,2.629435,-3.594907,0.049452,0.310995,0.000000,0.000000,0.000000,-1.988279,-6.970475,2.134384,-2.458090,-0.067455,-0.177832,0.000000,0.000000,0.000000
0.307000,-0.280311,-6.136105,2.599799,-3.598695,0.042773,0.307507,0.000000,0.000000,0.000000,-1.970606,-6.946773,2.136656,-2.473842,-0.046542,-0.143675,0.000000,0.000000,0.000000
0.307000,-0.275823,-6.119483,2.570163,-3.602484,0.036094,0.304020,0.000000,0.000000,0.000000,-1.952933,-6.923071,2.138928,-2.489594,-0.025628,-0.109518,0.000000,0.000000,0.000000
0.308000,-0.271334,-6.102862,2.540527,-3.606272,0.029415,0.300532,0.000000,0.000000,0.000000,-1.935260,-6.899368,2.141200,-2.505346,-0.004715,-0.075361,0.000000,0.000000,0.000000
0.308000,-0.266846,-6.086240,2.510891,-3.610061,0.022736,0.297045,0.000000,0.000000,0.000000,-1.917588,-6.875666,2.143472,-2.521098,0.016198,-0.041204,0.000000,0.000000,0.000000
0.309000,-0.262357,-6.069619,2.481255,-3.613849,0.016057,0.293557,0.000000,0.000000,0.000000,-1.899915,-6.851964,2.145744,-2.536850,0.037112,-0.007047,0.000000,0.000000,0.000000
0.309000,-0.257869,-6.052997,2.451619,-3.617638,0.009378,0.290070,0.000000,0.000000,0.000000,-1.882242,-6.828262,2.148015,-2.552602,0.058025,0.027110,0.000000,0.000000,0.000000
0.310000,-0.253381,-6.036375,2.421983,-3.621426,0.002700,0.286582,0.000000,0.000000,0.000000,-1.864569,-6.804560,2.150287,-2.568354,0.078938,0.061267,0.000000,0.000000,0.000000
0.310000,-0.250171,-6.020157,2.390977,-3.623088,-0.003754,0.283567,0.000000,0.000000,0.000000,-1.820838,-6.813951,2.200540,-2.574537,0.088719,0.083580,0.000000,0.000000,0.000000
0.311000,-0.248241,-6.004343,2.358602,-3.622623,-0.009981,0.281023,0.000000,0.000000,0.000000,-1.751048,-6.856438,2.298774,-2.571150,0.087367,0.094049,0.000000,0.000000,0.000000
0.311000,-0.246311,-5.988529,2.326227,-3.622158,-0.016208,0.278479,0.000000,0.000000,0.000000,-1.681258,-6.898923,2.397008,-2.567763,0.086015,0.104518,0.000000,0.000000,0.000000
0.312000,-0.244381,-5.972715,2.293851,-3.621693,-0.022435,0.275935,0.000000,0.000000,0.000000,-1.611468,-6.941410,2.495241,-2.564376,0.084663,0.114987,0.000000,0.000000,0.000000
0.312000,-0.242451,-5.956901,2.261476,-3.621228,-0.028663,0.273391,0.000000,0.000000,0.000000,-1.541677,-6.983896,2.593475,-2.560990,0.083312,0.125456,0.000000,0.000000,0.000000
0.313000,-0.240521,-5.941087,2.229100,-3.620763,-0.034890,0.270847,0.000000,0.000000,0.000000,-1.471887,-7.026382,2.691709,-2.557603,0.081960,0.135926,0.000000,0.000000,0.000000
0.314000,-0.238591,-5.925272,2.196725,-3.620298,-0.041117,0.268303,0.000000,0.000000,0.000000,-1.402097,-7.068868,2.789943,-2.554216,0.080608,0.146395,0.000000,0.000000,0.000000
0.314000,-0.236661,-5.909459,2.164350,-3.619833,-0.047344,0.265759,0.000000,0.000000,0.000000,-1.332307,-7.111354,2.888176,-2.550829,0.079256,0.156864,0.000000,0.000000,0.000000
0.315000,-0.234731,-5.893644,2.131974,-3.619368,-0.053572,0.263215,0.000000,0.000000,0.000000,-1.262517,-7.153840,2.986410,-2.547442,0.077904,0.167333,0.000000,0.000000,0.000000
0.315000,-0.232801,-5.877830,2.099599,-3.618903,-0.059799,0.260671,0.000000,0.000000,0.000000,-1.192727,-7.196326,3.084644,-2.544056,0.076552,0.177802,0.000000,0.000000,0.000000
0.316000,-0.230870,-5.862016,2.067224,-3.618438,-0.066026,0.258127,0.000000,0.000000,0.000000,-1.122937,-7.238812,3.182878,-2.540669,0.075201,0.188271,0.000000,0.000000,0.000000
0.316000,-0.228940,-5.846202,2.034848,-3.617973,-0.072253,0.255583,0.000000,0.000000,0.000000,-1.053147,-7.281298,3.281111,-2.537282,0.073849,0.198740,0.000000,0.000000,0.000000
0.317000,-0.227010,-5.830388,2.002473,-3.617508,-0.078480,0.253039,0.000000,0.000000,0.000000,-0.983357,-7.323784,3.379345,-2.533895,0.072497,0.209209,0.000000,0.000000,0.000000
0.317000,-0.225080,-5.814574,1.970098,-3.617043,-0.084708,0.250495,0.000000,0.000000,0.000000,-0.913566,-7.366271,3.477579,-2.530509,0.071145,0.219678,0.000000,0.000000,0.000000
0.318000,-0.235268,-5.801157,1.937726,-3.615607,-0.088774,0.249944,0.000000,0.000000,0.000000,-0.902461,-7.386924,3.427395,-2.502479,0.052739,0.192333,0.000000,0.000000,0.000000
0.318000,-0.245456,-5.787741,1.905354,-3.614172,-0.092841,0.249392,0.000000,0.000000,0.000000,-0.891356,-7.407578,3.377211,-2.474450,0.034334,0.164988,0.000000,0.000000,0.000000
0.319000,-0.255645,-5.774325,1.872982,-3.612736,-0.096907,0.248841,0.000000,0.000000,0.000000,-0.880251,-7.428231,3.327027,-2.446421,0.015928,0.137644,0.000000,0.000000,0.000000
0.319000,-0.265833,-5.760909,1.840611,-3.611301,-0.100974,0.248289,0.000000,0.000000,0.000000,-0.869146,-7.448885,3.276844,-2.418391,-0.002477,0.110299,0.000000,0.000000,0.000000
0.320000,-0.276021,-5.747493,1.808239,-3.609866,-0.105040,0.247738,0.000000,0.000000,0.000000,-0.858041,-7.469539,3.226660,-2.390362,-0.020883,0.082954,0.000000,0.000000,0.000000
0.320000,-0.286209,-5.734076,1.775867,-3.608431,-0.109107,0.247187,0.000000,0.000000,0.000000,-0.846936,-7.490192,3.176476,-2.362333,-0.039288,0.055609,0.000000,0.000000,0.000000
0.321000,-0.296397,-5.720661,1.743495,-3.606995,-0.113173,0.246635,0.000000,0.000000,0.000000,-0.835831,-7.510846,3.126292,-2.334304,-0.057694,0.028264,0.000000,0.000000,0.000000
0.321000,-0.306585,-5.707244,1.711124,-3.605560,-0.117240,0.246084,0.000000,0.000000,0.000000,-0.824726,-7.531499,3.076108,-2.306274,-0.076099,0.000919,0.000000,0.000000,0.000000
0.322000,-0.316773,-5.693828,1.678752,-3.604125,-0.121307,0.245532,0.000000,0.000000,0.000000,-0.813621,-7.552153,3.025924,-2.278245,-0.094505,-0.026426,0.000000,0.000000,0.000000
0.322000,-0.326961,-5.680412,1.646380,-3.602689,-0.125373,0.244981,0.000000,0.000000,0.000000,-0.802516,-7.572806,2.975740,-2.250216,-0.112910,-0.053770,0.000000,0.000000,0.000000
0.323000,-0.337149,-5.666996,1.614008,-3.601254,-0.129440,0.244429,0.000000,0.000000,0.000000,-0.791411,-7.593460,2.925556,-2.222186,-0.131316,-0.081115,0.000000,0.000000,0.000000
0.323000,-0.347337,-5.653580,1.581637,-3.599818,-0.133506,0.243878,0.000000,0.000000,0.000000,-0.780306,-7.614113,2.875373,-2.194157,-0.149721,-0.108460,0.000000,0.000000,0.000000
0.324000,-0.357525,-5.640163,1.549265,-3.598383,-0.137573,0.243327,0.000000,0.000000,0.000000,-0.769201,-7.634767,2.825189,-2.166128,-0.168127,-0.135805,0.000000,0.000000,0.000000
0.324000,-0.367262,-5.629308,1.525477,-3.596786,-0.141433,0.243875,0.000000,0.000000,0.000000,-0.760556,-7.643355,2.775039,-2.151098,-0.178473,-0.166064,0.000000,0.000000,0.000000
0.325000,-0.376546,-5.621015,1.510272,-3.595027,-0.145086,0.245522,0.000000,0.000000,0.000000,-0.754372,-7.639878,2.724923,-2.149068,-0.180760,-0.199237,0.000000,0.000000,0.000000
0.325000,-0.385830,-5.612721,1.495068,-3.593268,-0.148740,0.247170,0.000000,0.000000,0.000000,-0.748187,-7.636402,2.674807,-2.147037,-0.183047,-0.232411,0.000000,0.000000,0.000000
0.326000,-0.395114,-5.604427,1.479863,-3.591509,-0.152393,0.248817,0.000000,0.000000,0.000000,-0.742002,-7.632925,2.624691,-2.145007,-0.185334,-0.265584,0.000000,0.000000,0.000000
0.326000,-0.404399,-5.596133,1.464658,-3.589750,-0.156047,0.250465,0.000000,0.000000,0.000000,-0.735818,-7.629447,2.574575,-2.142976,-0.187621,-0.298757,0.000000,0.000000,0.000000
0.327000,-0.413683,-5.587840,1.449454,-3.587991,-0.159700,0.252112,0.000000,0.000000,0.000000,-0.729633,-7.625970,2.524459,-2.140946,-0.189908,-0.331930,0.000000,0.000000,0.000000
0.327000,-0.422967,-5.579545,1.434249,-3.586232,-0.163354,0.253760,0.000000,0.000000,0.000000,-0.723448,-7.622493,2.474343,-2.138915,-0.192195,-0.365103,0.000000,0.000000,0.000000
0.328000,-0.432251,-5.571252,1.419045,-3.584473,-0.167007,0.255407,0.000000,0.000000,0.000000,-0.717263,-7.619017,2.424227,-2.136885,-0.194482,-0.398277,0.000000,0.000000,0.000000
0.328000,-0.441536,-5.562958,1.403840,-3.582714,-0.170660,0.257055,0.000000,0.000000,0.000000,-0.711079,-7.615540,2.374111,-2.134854,-0.196769,-0.431450,0.000000,0.000000,0.000000
0.329000,-0.450820,-5.554664,1.388635,-3.580955,-0.174314,0.258702,0.000000,0.000000,0.000000,-0.704894,-7.612062,2.323996,-2.132824,-0.199056,-0.464623,0.000000,0.000000,0.000000
0.329000,-0.460104,-5.546371,1.373431,-3.579196,-0.177967,0.260349,0.000000,0.000000,0.000000,-0.698709,-7.608585,2.273880,-2.130794,-0.201343,-0.497796,0.000000,0.000000,0.000000
0.330000,-0.469388,-5.538077,1.358226,-3.577437,-0.181621,0.261997,0.000000,0.000000,0.000000,-0.692525,-7.605109,2.223764,-2.128763,-0.203630,-0.530970,0.000000,0.000000,0.000000
0.330000,-0.478673,-5.529783,1.343022,-3.575678,-0.185274,0.263644,0.000000,0.000000,0.000000,-0.686340,-7.601632,2.173648,-2.126733,-0.205917,-0.564143,0.000000,0.000000,0.000000
0.331000,-0.487957,-5.521489,1.327817,-3.573919,-0.188928,0.265292,0.000000,0.000000,0.000000,-0.680155,-7.598155,2.123532,-2.124702,-0.208204,-0.597316,0.000000,0.000000,0.000000
0.331000,-0.502683,-5.506739,1.304139,-3.570766,-0.192823,0.267806,0.000000,0.000000,0.000000,-0.695762,-7.574948,2.109170,-2.137172,-0.201290,-0.623634,0.000000,0.000000,0.000000
0.332000,-0.517408,-5.491989,1.280461,-3.567612,-0.196718,0.270320,0.000000,0.000000,0.000000,-0.711369,-7.551743,2.094808,-2.149642,-0.194375,-0.649952,0.000000,0.000000,0.000000
0.332000,-0.532134,-5.477239,1.256783,-3.564459,-0.200613,0.272835,0.000000,0.000000,0.000000,-0.726975,-7.528536,2.080446,-2.162113,-0.187460,-0.676270,0.000000,0.000000,0.000000
0.333000,-0.546859,-5.462489,1.233105,-3.561306,-0.204508,0.275349,0.000000,0.000000,0.000000,-0.742582,-7.505331,2.066084,-2.174583,-0.180546,-0.702589,0.000000,0.000000,0.000000
0.333000,-0.561585,-5.447739,1.209427,-3.558153,-0.208403,0.277863,0.000000,0.000000,0.000000,-0.758188,-7.482124,2.051722,-2.187053,-0.173631,-0.728907,0.000000,0.000000,0.000000
0.334000,-0.576310,-5.432989,1.185749,-3.554999,-0.212298,0.280377,0.000000,0.000000,0.000000,-0.773795,-7.458919,2.037360,-2.199523,-0.166717,-0.755225,0.000000,0.000000,0.000000
0.334000,-0.591036,-5.418239,1.162071,-3.551846,-0.216193,0.282892,0.000000,0.000000,0.000000,-0.789402,-7.435712,2.022998,-2.211993,-0.159802,-0.781543,0.000000,0.000000,0.000000
