Time,Sensor 11 Acc.ACCX11,Sensor 11 Acc.ACCY11,Sensor 11 Acc.ACCZ11,Sensor 11 Gyro.GYROX11,Sensor 11 Gyro.GYROY11,Sensor 11 Gyro.GYROZ11,Sensor 11 Mag.MAGX11,Sensor 11 Mag.MAGY11,Sensor 11 Mag.MAGZ11,Sensor 12 Acc.ACCX12,Sensor 12 Acc.ACCY12,Sensor 12 Acc.ACCZ12,Sensor 12 Gyro.GYROX12,Sensor 12 Gyro.GYROY12,Sensor 12 Gyro.GYROZ12,Sensor 12 Mag.MAGX12,Sensor 12 Mag.MAGY12,Sensor 12 Mag.MAGZ12
0.000000,0.361539,-7.989193,9.486734,1.276865,-0.552998,0.013508,0.000000,0.000000,0.000000,-0.318957,-9.461898,4.177370,1.069974,-0.511030,0.176371,0.000000,0.000000,0.000000
0.001000,0.337484,-7.996222,9.496384,1.269279,-0.549119,0.012967,0.000000,0.000000,0.000000,-0.326470,-9.468233,4.141232,1.063832,-0.512884,0.174194,0.000000,0.000000,0.000000
0.001000,0.313430,-8.003251,9.506033,1.261693,-0.545240,0.012426,0.000000,0.000000,0.000000,-0.333983,-9.474569,4.105093,1.057691,-0.514739,0.172017,0.000000,0.000000,0.000000
0.002000,0.289375,-8.010281,9.515682,1.254108,-0.541361,0.011885,0.000000,0.000000,0.000000,-0.341496,-9.480906,4.068955,1.051549,-0.516593,0.169841,0.000000,0.000000,0.000000
0.002000,0.265320,-8.017310,9.525331,1.246522,-0.537483,0.011344,0.000000,0.000000,0.000000,-0.349009,-9.487242,4.032817,1.045407,-0.518447,0.167664,0.000000,0.000000,0.000000
0.003000,0.252205,-8.013231,9.521624,1.237679,-0.540057,0.010874,0.000000,0.000000,0.000000,-0.337481,-9.478253,4.064030,1.030922,-0.519556,0.164783,0.000000,0.000000,0.000000
0.003000,0.239089,-8.009152,9.517915,1.228835,-0.542632,0.010405,0.000000,0.000000,0.000000,-0.325953,-9.469265,4.095243,1.016437,-0.520665,0.161902,0.000000,0.000000,0.000000
0.004000,0.225973,-8.005074,9.514207,1.219992,-0.545206,0.009935,0.000000,0.000000,0.000000,-0.314426,-9.460277,4.126457,1.001951,-0.521774,0.159021,0.000000,0.000000,0.000000
0.004000,0.212857,-8.000994,9.510499,1.211148,-0.547781,0.009466,0.000000,0.000000,0.000000,-0.302898,-9.451288,4.157670,0.987466,-0.522883,0.156140,0.000000,0.000000,0.000000
0.004000,0.199742,-7.996915,9.506791,1.202305,-0.550355,0.008997,0.000000,0.000000,0.000000,-0.291370,-9.442300,4.188883,0.972981,-0.523992,0.153259,0.000000,0.000000,0.000000
0.005000,0.186626,-7.992836,9.503082,1.193461,-0.552930,0.008527,0.000000,0.000000,0.000000,-0.279843,-9.433311,4.220096,0.958496,-0.525101,0.150378,0.000000,0.000000,0.000000
0.005000,0.173510,-7.988757,9.499374,1.184618,-0.555505,0.008058,0.000000,0.000000,0.000000,-0.268315,-9.424323,4.251309,0.944010,-0.526210,0.147497,0.000000,0.000000,0.000000
0.006000,0.160395,-7.984678,9.495667,1.175774,-0.558079,0.007588,0.000000,0.000000,0.000000,-0.256787,-9.415335,4.282523,0.929525,-0.527319,0.144616,0.000000,0.000000,0.000000
0.006000,0.147279,-7.980599,9.491958,1.166931,-0.560654,0.007119,0.000000,0.000000,0.000000,-0.245260,-9.406346,4.313736,0.915040,-0.528428,0.141735,0.000000,0.000000,0.000000
0.007000,0.134163,-7.976520,9.488250,1.158087,-0.563228,0.006650,0.000000,0.000000,0.000000,-0.233732,-9.397358,4.344949,0.900554,-0.529537,0.138854,0.000000,0.000000,0.000000
0.007000,0.121048,-7.972441,9.484542,1.149244,-0.565803,0.006180,0.000000,0.000000,0.000000,-0.222204,-9.388370,4.376163,0.886069,-0.530646,0.135973,0.000000,0.000000,0.000000
0.008000,0.107932,-7.968362,9.480833,1.140401,-0.568377,0.005711,0.000000,0.000000,0.000000,-0.210677,-9.379381,4.407376,0.871584,-0.531755,0.133093,0.000000,0.000000,0.000000
0.009000,0.094816,-7.964283,9.477125,1.131557,-0.570952,0.005241,0.000000,0.000000,0.000000,-0.199149,-9.370393,4.438589,0.857099,-0.532864,0.130212,0.000000,0.000000,0.000000
0.009000,0.084663,-7.956617,9.474449,1.123146,-0.574862,0.004301,0.000000,0.000000,0.000000,-0.185618,-9.360772,4.462446,0.843885,-0.532370,0.127193,0.000000,0.000000,0.000000
0.009000,0.077473,-7.945364,9.472804,1.115168,-0.580108,0.002889,0.000000,0.000000,0.000000,-0.170084,-9.350518,4.478948,0.831942,-0.530272,0.124036,0.000000,0.000000,0.000000
0.010000,0.070282,-7.934110,9.471160,1.107190,-0.585354,0.001477,0.000000,0.000000,0.000000,-0.154550,-9.340264,4.495449,0.819999,-0.528174,0.120879,0.000000,0.000000,0.000000
0.011000,0.063091,-7.922856,9.469516,1.099212,-0.590600,0.000065,0.000000,0.000000,0.000000,-0.139016,-9.330010,4.511950,0.808056,-0.526076,0.117722,0.000000,0.000000,0.000000
0.011000,0.055901,-7.911603,9.467871,1.091234,-0.595846,-0.001346,0.000000,0.000000,0.000000,-0.123482,-9.319757,4.528451,0.796113,-0.523978,0.114565,0.000000,0.000000,0.000000
0.011000,0.048710,-7.900350,9.466227,1.083256,-0.601091,-0.002758,0.000000,0.000000,0.000000,-0.107948,-9.309503,4.544953,0.784170,-0.521880,0.111409,0.000000,0.000000,0.000000
0.012000,0.041519,-7.889096,9.464582,1.075278,-0.606337,-0.004170,0.000000,0.000000,0.000000,-0.092414,-9.299249,4.561454,0.772227,-0.519782,0.108252,0.000000,0.000000,0.000000
0.013000,0.034329,-7.877842,9.462937,1.067300,-0.611583,-0.005582,0.000000,0.000000,0.000000,-0.076880,-9.288994,4.577956,0.760284,-0.517684,0.105095,0.000000,0.000000,0.000000
0.013000,0.027138,-7.866589,9.461293,1.059322,-0.616829,-0.006994,0.000000,0.000000,0.000000,-0.061345,-9.278740,4.594457,0.748341,-0.515586,0.101938,0.000000,0.000000,0.000000
0.013000,0.019947,-7.855336,9.459648,1.051344,-0.622075,-0.008405,0.000000,0.000000,0.000000,-0.045811,-9.268486,4.610959,0.736398,-0.513488,0.098781,0.000000,0.000000,0.000000
0.014000,0.012757,-7.844082,9.458004,1.043366,-0.627321,-0.009817,0.000000,0.000000,0.000000,-0.030277,-9.258232,4.627460,0.724456,-0.511390,0.095624,0.000000,0.000000,0.000000
0.015000,0.005566,-7.832829,9.456360,1.035388,-0.632567,-0.011229,0.000000,0.000000,0.000000,-0.014743,-9.247978,4.643961,0.712513,-0.509292,0.092468,0.000000,0.000000,0.000000
0.015000,-0.001625,-7.821575,9.454715,1.027410,-0.637812,-0.012641,0.000000,0.000000,0.000000,0.000791,-9.237724,4.660462,0.700570,-0.507194,0.089311,0.000000,0.000000,0.000000
0.015000,-0.008815,-7.810322,9.453071,1.019432,-0.643058,-0.014053,0.000000,0.000000,0.000000,0.016325,-9.227470,4.676964,0.688627,-0.505096,0.086154,0.000000,0.000000,0.000000
0.016000,-0.001842,-7.800245,9.444341,1.011480,-0.645434,-0.014268,0.000000,0.000000,0.000000,-0.008456,-9.223351,4.689967,0.677816,-0.502057,0.087773,0.000000,0.000000,0.000000
0.017000,0.005131,-7.790169,9.435610,1.003529,-0.647810,-0.014483,0.000000,0.000000,0.000000,-0.033236,-9.219232,4.702970,0.667006,-0.499019,0.089393,0.000000,0.000000,0.000000
0.017000,0.012104,-7.780092,9.426880,0.995578,-0.650185,-0.014698,0.000000,0.000000,0.000000,-0.058017,-9.215113,4.715972,0.656195,-0.495980,0.091013,0.000000,0.000000,0.000000
0.018000,0.019077,-7.770015,9.418149,0.987627,-0.652561,-0.014913,0.000000,0.000000,0.000000,-0.082797,-9.210993,4.728975,0.645384,-0.492942,0.092632,0.000000,0.000000,0.000000
0.018000,0.026050,-7.759939,9.409419,0.979675,-0.654937,-0.015128,0.000000,0.000000,0.000000,-0.107578,-9.206874,4.741978,0.634574,-0.489903,0.094252,0.000000,0.000000,0.000000
0.018000,0.033023,-7.749862,9.400688,0.971724,-0.657312,-0.015343,0.000000,0.000000,0.000000,-0.132358,-9.202755,4.754981,0.623763,-0.486865,0.095872,0.000000,0.000000,0.000000
0.019000,0.039996,-7.739786,9.391958,0.963773,-0.659688,-0.015558,0.000000,0.000000,0.000000,-0.157139,-9.198635,4.767984,0.612952,-0.483826,0.097491,0.000000,0.000000,0.000000
0.019000,0.046969,-7.729709,9.383227,0.955822,-0.662064,-0.015773,0.000000,0.000000,0.000000,-0.181919,-9.194516,4.780987,0.602142,-0.480787,0.099111,0.000000,0.000000,0.000000
0.020000,0.053942,-7.719633,9.374497,0.947870,-0.664440,-0.015988,0.000000,0.000000,0.000000,-0.206700,-9.190396,4.793990,0.591331,-0.477749,0.100730,0.000000,0.000000,0.000000
0.021000,0.060915,-7.709556,9.365767,0.939919,-0.666815,-0.016203,0.000000,0.000000,0.000000,-0.231480,-9.186277,4.806993,0.580520,-0.474710,0.102350,0.000000,0.000000,0.000000
0.021000,0.067888,-7.699479,9.357037,0.931968,-0.669191,-0.016418,0.000000,0.000000,0.000000,-0.256261,-9.182158,4.819995,0.569710,-0.471672,0.103970,0.000000,0.000000,0.000000
0.021000,0.074860,-7.689403,9.348307,0.924017,-0.671567,-0.016633,0.000000,0.000000,0.000000,-0.281042,-9.178039,4.832998,0.558899,-0.468633,0.105589,0.000000,0.000000,0.000000
0.022000,0.081833,-7.679326,9.339576,0.916066,-0.673942,-0.016848,0.000000,0.000000,0.000000,-0.305822,-9.173920,4.846001,0.548088,-0.465594,0.107209,0.000000,0.000000,0.000000
0.022000,0.095481,-7.668621,9.336411,0.909653,-0.674719,-0.016891,0.000000,0.000000,0.000000,-0.301247,-9.176708,4.852442,0.534400,-0.460826,0.111959,0.000000,0.000000,0.000000
0.023000,0.115804,-7.657287,9.338814,0.904780,-0.673897,-0.016764,0.000000,0.000000,0.000000,-0.267318,-9.186406,4.852321,0.517832,-0.454328,0.119841,0.000000,0.000000,0.000000
0.024000,0.136126,-7.645952,9.341216,0.899907,-0.673074,-0.016637,0.000000,0.000000,0.000000,-0.233388,-9.196103,4.852200,0.501265,-0.447830,0.127722,0.000000,0.000000,0.000000
0.024000,0.156448,-7.634618,9.343618,0.895034,-0.672252,-0.016510,0.000000,0.000000,0.000000,-0.199458,-9.205801,4.852078,0.484698,-0.441331,0.135604,0.000000,0.000000,0.000000
0.025000,0.176771,-7.623284,9.346021,0.890161,-0.671430,-0.016383,0.000000,0.000000,0.000000,-0.165528,-9.215498,4.851957,0.468131,-0.434833,0.143485,0.000000,0.000000,0.000000
0.025000,0.197093,-7.611949,9.348423,0.885287,-0.670607,-0.016255,0.000000,0.000000,0.000000,-0.131598,-9.225196,4.851836,0.451564,-0.428335,0.151366,0.000000,0.000000,0.000000
0.025000,0.217415,-7.600616,9.350825,0.880414,-0.669785,-0.016128,0.000000,0.000000,0.000000,-0.097668,-9.234893,4.851715,0.434996,-0.421837,0.159248,0.000000,0.000000,0.000000
0.026000,0.237738,-7.589281,9.353228,0.875541,-0.668963,-0.016001,0.000000,0.000000,0.000000,-0.063739,-9.244591,4.851594,0.418429,-0.415338,0.167129,0.000000,0.000000,0.000000
0.026000,0.258060,-7.577947,9.355630,0.870668,-0.668140,-0.015874,0.000000,0.000000,0.000000,-0.029809,-9.254288,4.851473,0.401862,-0.408840,0.175011,0.000000,0.000000,0.000000
0.027000,0.278383,-7.566613,9.358032,0.865795,-0.667318,-0.015747,0.000000,0.000000,0.000000,0.004121,-9.263986,4.851352,0.385295,-0.402342,0.182892,0.000000,0.000000,0.000000
0.028000,0.298705,-7.555279,9.360435,0.860922,-0.666496,-0.015619,0.000000,0.000000,0.000000,0.038051,-9.273683,4.851230,0.368728,-0.395844,0.190773,0.000000,0.000000,0.000000
0.028000,0.319027,-7.543944,9.362837,0.856048,-0.665673,-0.015492,0.000000,0.000000,0.000000,0.071981,-9.283381,4.851109,0.352161,-0.389345,0.198655,0.000000,0.000000,0.000000
0.029000,0.339350,-7.532610,9.365239,0.851175,-0.664851,-0.015365,0.000000,0.000000,0.000000,0.105911,-9.293077,4.850988,0.335593,-0.382847,0.206536,0.000000,0.000000,0.000000
0.029000,0.359672,-7.521276,9.367641,0.846302,-0.664029,-0.015238,0.000000,0.000000,0.000000,0.139840,-9.302775,4.850867,0.319026,-0.376349,0.214418,0.000000,0.000000,0.000000
0.029000,0.386178,-7.520317,9.363731,0.837299,-0.661744,-0.014428,0.000000,0.000000,0.000000,0.169845,-9.342123,4.890206,0.314472,-0.375127,0.211022,0.000000,0.000000,0.000000
0.030000,0.412683,-7.519357,9.359822,0.828296,-0.659460,-0.013618,0.000000,0.000000,0.000000,0.199849,-9.381470,4.929545,0.309918,-0.373905,0.207627,0.000000,0.000000,0.000000
0.030000,0.439189,-7.518398,9.355912,0.819293,-0.657176,-0.012808,0.000000,0.000000,0.000000,0.229853,-9.420817,4.968885,0.305363,-0.372683,0.204232,0.000000,0.000000,0.000000
0.031000,0.465694,-7.517438,9.352002,0.810290,-0.654891,-0.011999,0.000000,0.000000,0.000000,0.259858,-9.460164,5.008224,0.300809,-0.371461,0.200837,0.000000,0.000000,0.000000
0.032000,0.492200,-7.516479,9.348093,0.801287,-0.652607,-0.011189,0.000000,0.000000,0.000000,0.289862,-9.499512,5.047564,0.296255,-0.370239,0.197442,0.000000,0.000000,0.000000
0.032000,0.518705,-7.515520,9.344183,0.792285,-0.650323,-0.010379,0.000000,0.000000,0.000000,0.319866,-9.538859,5.086903,0.291700,-0.369017,0.194047,0.000000,0.000000,0.000000
0.033000,0.545211,-7.514561,9.340274,0.783282,-0.648038,-0.009569,0.000000,0.000000,0.000000,0.349871,-9.578206,5.126242,0.287146,-0.367796,0.190652,0.000000,0.000000,0.000000
0.033000,0.571716,-7.513601,9.336364,0.774279,-0.645754,-0.008759,0.000000,0.000000,0.000000,0.379875,-9.617554,5.165581,0.282591,-0.366574,0.187257,0.000000,0.000000,0.000000
0.034000,0.598222,-7.512642,9.332454,0.765276,-0.643470,-0.007950,0.000000,0.000000,0.000000,0.409879,-9.656900,5.204921,0.278037,-0.365352,0.183862,0.000000,0.000000,0.000000
0.034000,0.624727,-7.511683,9.328545,0.756273,-0.641185,-0.007140,0.000000,0.000000,0.000000,0.439884,-9.696248,5.244260,0.273483,-0.364130,0.180467,0.000000,0.000000,0.000000
0.035000,0.651233,-7.510723,9.324635,0.747270,-0.638901,-0.006330,0.000000,0.000000,0.000000,0.469888,-9.735596,5.283599,0.268928,-0.362908,0.177072,0.000000,0.000000,0.000000
0.035000,0.677738,-7.509764,9.320724,0.738267,-0.636617,-0.005520,0.000000,0.000000,0.000000,0.499892,-9.774942,5.322938,0.264374,-0.361686,0.173677,0.000000,0.000000,0.000000
0.035000,0.704244,-7.508804,9.316815,0.729264,-0.634332,-0.004710,0.000000,0.000000,0.000000,0.529896,-9.814290,5.362278,0.259820,-0.360464,0.170281,0.000000,0.000000,0.000000
0.036000,0.730064,-7.511130,9.310644,0.720167,-0.632658,-0.003737,0.000000,0.000000,0.000000,0.544004,-9.845064,5.383693,0.257473,-0.361704,0.163784,0.000000,0.000000,0.000000
0.036000,0.755199,-7.516740,9.302212,0.710976,-0.631594,-0.002602,0.000000,0.000000,0.000000,0.542214,-9.867265,5.387184,0.257333,-0.365405,0.154185,0.000000,0.000000,0.000000
0.037000,0.780334,-7.522351,9.293780,0.701785,-0.630530,-0.001466,0.000000,0.000000,0.000000,0.540425,-9.889466,5.390674,0.257193,-0.369107,0.144585,0.000000,0.000000,0.000000
0.037000,0.805469,-7.527962,9.285348,0.692594,-0.629465,-0.000330,0.000000,0.000000,0.000000,0.538635,-9.911667,5.394165,0.257054,-0.372808,0.134986,0.000000,0.000000,0.000000
0.038000,0.830604,-7.533572,9.276916,0.683403,-0.628401,0.000806,0.000000,0.000000,0.000000,0.536846,-9.933868,5.397656,0.256914,-0.376510,0.125386,0.000000,0.000000,0.000000
0.038000,0.855739,-7.539183,9.268483,0.674212,-0.627337,0.001942,0.000000,0.000000,0.000000,0.535057,-9.956069,5.401146,0.256774,-0.380211,0.115786,0.000000,0.000000,0.000000
0.039000,0.880874,-7.544793,9.260051,0.665021,-0.626273,0.003078,0.000000,0.000000,0.000000,0.533267,-9.978271,5.404637,0.256634,-0.383913,0.106187,0.000000,0.000000,0.000000
0.040000,0.906009,-7.550404,9.251619,0.655830,-0.625208,0.004214,0.000000,0.000000,0.000000,0.531478,-10.000471,5.408128,0.256495,-0.387614,0.096587,0.000000,0.000000,0.000000
0.040000,0.931144,-7.556015,9.243187,0.646639,-0.624144,0.005350,0.000000,0.000000,0.000000,0.529688,-10.022673,5.411619,0.256355,-0.391316,0.086988,0.000000,0.000000,0.000000
0.041000,0.956279,-7.561625,9.234755,0.637448,-0.623080,0.006485,0.000000,0.000000,0.000000,0.527899,-10.044873,5.415110,0.256215,-0.395017,0.077388,0.000000,0.000000,0.000000
0.041000,0.981414,-7.567235,9.226322,0.628257,-0.622016,0.007621,0.000000,0.000000,0.000000,0.526109,-10.067075,5.418600,0.256076,-0.398719,0.067789,0.000000,0.000000,0.000000
0.042000,1.006549,-7.572846,9.217891,0.619066,-0.620951,0.008757,0.000000,0.000000,0.000000,0.524320,-10.089275,5.422091,0.255936,-0.402420,0.058189,0.000000,0.000000,0.000000
0.042000,1.031684,-7.578457,9.209458,0.609875,-0.619887,0.009893,0.000000,0.000000,0.000000,0.522530,-10.111477,5.425581,0.255796,-0.406121,0.048590,0.000000,0.000000,0.000000
0.043000,1.056819,-7.584067,9.201026,0.600684,-0.618823,0.011029,0.000000,0.000000,0.000000,0.520741,-10.133677,5.429072,0.255656,-0.409823,0.038990,0.000000,0.000000,0.000000
0.043000,1.080833,-7.593475,9.198544,0.592009,-0.619439,0.012579,0.000000,0.000000,0.000000,0.509447,-10.124593,5.414264,0.253467,-0.414311,0.034439,0.000000,0.000000,0.000000
0.043000,1.104848,-7.602882,9.196060,0.583334,-0.620056,0.014129,0.000000,0.000000,0.000000,0.498153,-10.115507,5.399455,0.251278,-0.418799,0.029888,0.000000,0.000000,0.000000
0.044000,1.128863,-7.612290,9.193578,0.574659,-0.620672,0.015678,0.000000,0.000000,0.000000,0.486859,-10.106422,5.384646,0.249088,-0.423287,0.025338,0.000000,0.000000,0.000000
0.044000,1.152877,-7.621697,9.191094,0.565984,-0.621288,0.017228,0.000000,0.000000,0.000000,0.475565,-10.097338,5.369837,0.246899,-0.427775,0.020787,0.000000,0.000000,0.000000
0.045000,1.176892,-7.631105,9.188612,0.557309,-0.621904,0.018778,0.000000,0.000000,0.000000,0.464271,-10.088252,5.355028,0.244710,-0.432263,0.016236,0.000000,0.000000,0.000000
0.045000,1.200906,-7.640513,9.186129,0.548634,-0.622521,0.020328,0.000000,0.000000,0.000000,0.452977,-10.079167,5.340219,0.242520,-0.436751,0.011685,0.000000,0.000000,0.000000
0.046000,1.224921,-7.649920,9.183646,0.539959,-0.623137,0.021877,0.000000,0.000000,0.000000,0.441683,-10.070082,5.325410,0.240331,-0.441239,0.007134,0.000000,0.000000,0.000000
0.046000,1.248936,-7.659328,9.181163,0.531284,-0.623753,0.023427,0.000000,0.000000,0.000000,0.430389,-10.060997,5.310601,0.238142,-0.445727,0.002584,0.000000,0.000000,0.000000
0.047000,1.272950,-7.668736,9.178680,0.522609,-0.624370,0.024977,0.000000,0.000000,0.000000,0.419095,-10.051912,5.295793,0.235952,-0.450215,-0.001967,0.000000,0.000000,0.000000
0.048000,1.296965,-7.678143,9.176197,0.513934,-0.624986,0.026527,0.000000,0.000000,0.000000,0.407801,-10.042827,5.280984,0.233763,-0.454704,-0.006518,0.000000,0.000000,0.000000
0.048000,1.320980,-7.687551,9.173715,0.505258,-0.625602,0.028076,0.000000,0.000000,0.000000,0.396507,-10.033742,5.266175,0.231574,-0.459192,-0.011069,0.000000,0.000000,0.000000
0.049000,1.344994,-7.696958,9.171231,0.496583,-0.626219,0.029626,0.000000,0.000000,0.000000,0.385214,-10.024657,5.251366,0.229384,-0.463680,-0.015620,0.000000,0.000000,0.000000
0.049000,1.369009,-7.706366,9.168749,0.487908,-0.626835,0.031176,0.000000,0.000000,0.000000,0.373920,-10.015572,5.236557,0.227195,-0.468168,-0.020170,0.000000,0.000000,0.000000
0.050000,1.389630,-7.714326,9.166374,0.479804,-0.627846,0.032523,0.000000,0.000000,0.000000,0.366052,-10.005386,5.234207,0.224126,-0.470990,-0.021254,0.000000,0.000000,0.000000
0.050000,1.406857,-7.720840,9.164109,0.472270,-0.629253,0.033668,0.000000,0.000000,0.000000,0.361610,-9.994101,5.244316,0.220177,-0.472145,-0.018869,0.000000,0.000000,0.000000
0.051000,1.424084,-7.727354,9.161844,0.464736,-0.630659,0.034813,0.000000,0.000000,0.000000,0.357168,-9.982815,5.254425,0.216228,-0.473301,-0.016484,0.000000,0.000000,0.000000
0.051000,1.441311,-7.733867,9.159578,0.457203,-0.632066,0.035958,0.000000,0.000000,0.000000,0.352725,-9.971529,5.264534,0.212280,-0.474456,-0.014100,0.000000,0.000000,0.000000
0.051000,1.458538,-7.740381,9.157313,0.449669,-0.633472,0.037103,0.000000,0.000000,0.000000,0.348283,-9.960243,5.274643,0.208331,-0.475612,-0.011715,0.000000,0.000000,0.000000
0.052000,1.475765,-7.746894,9.155048,0.442135,-0.634879,0.038247,0.000000,0.000000,0.000000,0.343841,-9.948957,5.284752,0.204382,-0.476768,-0.009331,0.000000,0.000000,0.000000
0.052000,1.492992,-7.753408,9.152782,0.434601,-0.636285,0.039392,0.000000,0.000000,0.000000,0.339399,-9.937672,5.294861,0.200433,-0.477923,-0.006946,0.000000,0.000000,0.000000
0.053000,1.510219,-7.759922,9.150517,0.427068,-0.637691,0.040537,0.000000,0.000000,0.000000,0.334957,-9.926385,5.304969,0.196485,-0.479079,-0.004561,0.000000,0.000000,0.000000
0.053000,1.527446,-7.766436,9.148252,0.419534,-0.639098,0.041682,0.000000,0.000000,0.000000,0.330515,-9.915099,5.315078,0.192536,-0.480234,-0.002177,0.000000,0.000000,0.000000
0.054000,1.544673,-7.772949,9.145987,0.412000,-0.640504,0.042827,0.000000,0.000000,0.000000,0.326073,-9.903813,5.325187,0.188587,-0.481390,0.000208,0.000000,0.000000,0.000000
0.054000,1.561900,-7.779463,9.143722,0.404466,-0.641911,0.043972,0.000000,0.000000,0.000000,0.321631,-9.892528,5.335296,0.184638,-0.482546,0.002592,0.000000,0.000000,0.000000
0.055000,1.579127,-7.785976,9.141457,0.396933,-0.643317,0.045117,0.000000,0.000000,0.000000,0.317189,-9.881242,5.345405,0.180690,-0.483701,0.004977,0.000000,0.000000,0.000000
0.056000,1.596354,-7.792490,9.139191,0.389399,-0.644724,0.046261,0.000000,0.000000,0.000000,0.312747,-9.869956,5.355514,0.176741,-0.484857,0.007362,0.000000,0.000000,0.000000
0.056000,1.613581,-7.799004,9.136926,0.381865,-0.646130,0.047406,0.000000,0.000000,0.000000,0.308305,-9.858670,5.365623,0.172792,-0.486012,0.009746,0.000000,0.000000,0.000000
0.057000,1.623262,-7.797174,9.137369,0.375901,-0.646143,0.047978,0.000000,0.000000,0.000000,0.321372,-9.858444,5.367687,0.170895,-0.486930,0.014367,0.000000,0.000000,0.000000
0.057000,1.632944,-7.795344,9.137813,0.369936,-0.646155,0.048549,0.000000,0.000000,0.000000,0.334439,-9.858218,5.369751,0.168997,-0.487847,0.018987,0.000000,0.000000,0.000000
0.058000,1.642626,-7.793514,9.138256,0.363972,-0.646168,0.049121,0.000000,0.000000,0.000000,0.347506,-9.857992,5.371815,0.167100,-0.488764,0.023608,0.000000,0.000000,0.000000
0.058000,1.652308,-7.791685,9.138700,0.358008,-0.646180,0.049692,0.000000,0.000000,0.000000,0.360573,-9.857766,5.373878,0.165203,-0.489681,0.028229,0.000000,0.000000,0.000000
0.059000,1.661989,-7.789855,9.139143,0.352043,-0.646193,0.050264,0.000000,0.000000,0.000000,0.373641,-9.857541,5.375942,0.163305,-0.490599,0.032849,0.000000,0.000000,0.000000
0.059000,1.671671,-7.788025,9.139586,0.346079,-0.646206,0.050836,0.000000,0.000000,0.000000,0.386708,-9.857315,5.378006,0.161408,-0.491516,0.037470,0.000000,0.000000,0.000000
0.059000,1.681353,-7.786195,9.140030,0.340115,-0.646218,0.051407,0.000000,0.000000,0.000000,0.399775,-9.857089,5.380070,0.159511,-0.492433,0.042091,0.000000,0.000000,0.000000
0.060000,1.691035,-7.784365,9.140473,0.334150,-0.646231,0.051979,0.000000,0.000000,0.000000,0.412842,-9.856863,5.382134,0.157613,-0.493351,0.046711,0.000000,0.000000,0.000000
0.060000,1.700716,-7.782536,9.140917,0.328186,-0.646243,0.052550,0.000000,0.000000,0.000000,0.425909,-9.856637,5.384198,0.155716,-0.494268,0.051332,0.000000,0.000000,0.000000
0.061000,1.710398,-7.780706,9.141360,0.322222,-0.646256,0.053122,0.000000,0.000000,0.000000,0.438976,-9.856411,5.386262,0.153819,-0.495185,0.055953,0.000000,0.000000,0.000000
0.061000,1.720080,-7.778876,9.141804,0.316257,-0.646268,0.053693,0.000000,0.000000,0.000000,0.452044,-9.856185,5.388326,0.151921,-0.496102,0.060573,0.000000,0.000000,0.000000
0.062000,1.729762,-7.777046,9.142247,0.310293,-0.646281,0.054265,0.000000,0.000000,0.000000,0.465111,-9.855959,5.390390,0.150024,-0.497020,0.065194,0.000000,0.000000,0.000000
0.062000,1.739444,-7.775217,9.142691,0.304329,-0.646294,0.054836,0.000000,0.000000,0.000000,0.478178,-9.855733,5.392454,0.148127,-0.497937,0.069815,0.000000,0.000000,0.000000
0.063000,1.744909,-7.770722,9.141389,0.298535,-0.645280,0.054996,0.000000,0.000000,0.000000,0.495356,-9.858414,5.389302,0.146117,-0.499687,0.073056,0.000000,0.000000,0.000000
0.064000,1.746159,-7.763564,9.138342,0.292911,-0.643239,0.054743,0.000000,0.000000,0.000000,0.516646,-9.864000,5.380934,0.143996,-0.502271,0.074917,0.000000,0.000000,0.000000
0.064000,1.747408,-7.756405,9.135295,0.287287,-0.641198,0.054491,0.000000,0.000000,0.000000,0.537936,-9.869587,5.372567,0.141875,-0.504854,0.076779,0.000000,0.000000,0.000000
0.065000,1.748658,-7.749247,9.132248,0.281663,-0.639158,0.054238,0.000000,0.000000,0.000000,0.559226,-9.875175,5.364199,0.139754,-0.507438,0.078640,0.000000,0.000000,0.000000
0.065000,1.749907,-7.742088,9.129200,0.276039,-0.637117,0.053985,0.000000,0.000000,0.000000,0.580516,-9.880761,5.355831,0.137633,-0.510022,0.080502,0.000000,0.000000,0.000000
0.066000,1.751157,-7.734930,9.126153,0.270415,-0.635076,0.053733,0.000000,0.000000,0.000000,0.601806,-9.886348,5.347464,0.135511,-0.512605,0.082364,0.000000,0.000000,0.000000
0.066000,1.752406,-7.727771,9.123106,0.264791,-0.633036,0.053480,0.000000,0.000000,0.000000,0.623096,-9.891934,5.339096,0.133390,-0.515189,0.084225,0.000000,0.000000,0.000000
0.067000,1.753656,-7.720613,9.120059,0.259168,-0.630995,0.053228,0.000000,0.000000,0.000000,0.644386,-9.897521,5.330729,0.131269,-0.517772,0.086087,0.000000,0.000000,0.000000
0.067000,1.754906,-7.713454,9.117011,0.253544,-0.628955,0.052975,0.000000,0.000000,0.000000,0.665676,-9.903108,5.322361,0.129148,-0.520356,0.087948,0.000000,0.000000,0.000000
0.068000,1.756155,-7.706296,9.113964,0.247920,-0.626914,0.052722,0.000000,0.000000,0.000000,0.686966,-9.908694,5.313993,0.127027,-0.522939,0.089810,0.000000,0.000000,0.000000
0.068000,1.757405,-7.699137,9.110917,0.242296,-0.624873,0.052470,0.000000,0.000000,0.000000,0.708256,-9.914282,5.305625,0.124905,-0.525523,0.091671,0.000000,0.000000,0.000000
0.069000,1.758654,-7.691979,9.107870,0.236672,-0.622833,0.052217,0.000000,0.000000,0.000000,0.729546,-9.919868,5.297258,0.122784,-0.528106,0.093533,0.000000,0.000000,0.000000
0.069000,1.759904,-7.684820,9.104822,0.231048,-0.620792,0.051964,0.000000,0.000000,0.000000,0.750836,-9.925455,5.288890,0.120663,-0.530690,0.095394,0.000000,0.000000,0.000000
0.070000,1.761153,-7.677662,9.101775,0.225424,-0.618751,0.051712,0.000000,0.000000,0.000000,0.772126,-9.931042,5.280523,0.118542,-0.533273,0.097256,0.000000,0.000000,0.000000
0.070000,1.759993,-7.674373,9.100470,0.219331,-0.615836,0.051287,0.000000,0.000000,0.000000,0.784169,-9.925261,5.274114,0.114482,-0.534427,0.096600,0.000000,0.000000,0.000000
0.070000,1.758832,-7.671084,9.099163,0.213238,-0.612921,0.050863,0.000000,0.000000,0.000000,0.796213,-9.919482,5.267705,0.110422,-0.535581,0.095944,0.000000,0.000000,0.000000
0.071000,1.757671,-7.667795,9.097857,0.207145,-0.610006,0.050438,0.000000,0.000000,0.000000,0.808256,-9.913702,5.261297,0.106362,-0.536735,0.095289,0.000000,0.000000,0.000000
0.071000,1.756510,-7.664506,9.096552,0.201051,-0.607091,0.050013,0.000000,0.000000,0.000000,0.820300,-9.907923,5.254888,0.102302,-0.537889,0.094633,0.000000,0.000000,0.000000
0.072000,1.755349,-7.661217,9.095246,0.194958,-0.604176,0.049589,0.000000,0.000000,0.000000,0.832343,-9.902143,5.248479,0.098242,-0.539043,0.093977,0.000000,0.000000,0.000000
0.072000,1.754189,-7.657928,9.093940,0.188865,-0.601261,0.049164,0.000000,0.000000,0.000000,0.844387,-9.896363,5.242071,0.094182,-0.540196,0.093321,0.000000,0.000000,0.000000
0.073000,1.753028,-7.654639,9.092634,0.182771,-0.598346,0.048739,0.000000,0.000000,0.000000,0.856430,-9.890583,5.235662,0.090123,-0.541350,0.092666,0.000000,0.000000,0.000000
0.073000,1.751867,-7.651350,9.091329,0.176678,-0.595431,0.048315,0.000000,0.000000,0.000000,0.868473,-9.884804,5.229253,0.086063,-0.542504,0.092010,0.000000,0.000000,0.000000
0.074000,1.750706,-7.648061,9.090023,0.170585,-0.592516,0.047890,0.000000,0.000000,0.000000,0.880517,-9.879024,5.222845,0.082003,-0.543658,0.091354,0.000000,0.000000,0.000000
0.074000,1.749545,-7.644772,9.088717,0.164492,-0.589601,0.047466,0.000000,0.000000,0.000000,0.892560,-9.873244,5.216436,0.077943,-0.544812,0.090698,0.000000,0.000000,0.000000
0.075000,1.748385,-7.641483,9.087411,0.158398,-0.586686,0.047041,0.000000,0.000000,0.000000,0.904604,-9.867464,5.210027,0.073883,-0.545966,0.090043,0.000000,0.000000,0.000000
0.075000,1.747224,-7.638194,9.086105,0.152305,-0.583771,0.046616,0.000000,0.000000,0.000000,0.916647,-9.861685,5.203619,0.069823,-0.547119,0.089387,0.000000,0.000000,0.000000
0.076000,1.746063,-7.634905,9.084800,0.146212,-0.580856,0.046192,0.000000,0.000000,0.000000,0.928691,-9.855905,5.197210,0.065763,-0.548273,0.088731,0.000000,0.000000,0.000000
0.076000,1.744181,-7.631076,9.081757,0.139531,-0.578541,0.046111,0.000000,0.000000,0.000000,0.942359,-9.846961,5.189971,0.062428,-0.548574,0.088467,0.000000,0.000000,0.000000
0.077000,1.741577,-7.626707,9.076976,0.132262,-0.576824,0.046374,0.000000,0.000000,0.000000,0.957652,-9.834853,5.181902,0.059818,-0.548023,0.088594,0.000000,0.000000,0.000000
0.077000,1.738973,-7.622337,9.072196,0.124993,-0.575108,0.046638,0.000000,0.000000,0.000000,0.972944,-9.822745,5.173833,0.057208,-0.547471,0.088721,0.000000,0.000000,0.000000
0.078000,1.736370,-7.617968,9.067415,0.117725,-0.573391,0.046901,0.000000,0.000000,0.000000,0.988237,-9.810637,5.165765,0.054597,-0.546919,0.088848,0.000000,0.000000,0.000000
0.079000,1.733766,-7.613599,9.062635,0.110456,-0.571675,0.047164,0.000000,0.000000,0.000000,1.003530,-9.798529,5.157696,0.051987,-0.546368,0.088976,0.000000,0.000000,0.000000
0.079000,1.731162,-7.609230,9.057856,0.103187,-0.569959,0.047428,0.000000,0.000000,0.000000,1.018823,-9.786421,5.149627,0.049377,-0.545816,0.089103,0.000000,0.000000,0.000000
0.080000,1.728558,-7.604860,9.053075,0.095919,-0.568242,0.047691,0.000000,0.000000,0.000000,1.034115,-9.774313,5.141559,0.046766,-0.545264,0.089230,0.000000,0.000000,0.000000
0.080000,1.725955,-7.600491,9.048295,0.088650,-0.566526,0.047954,0.000000,0.000000,0.000000,1.049408,-9.762205,5.133490,0.044156,-0.544712,0.089357,0.000000,0.000000,0.000000
0.081000,1.723351,-7.596122,9.043514,0.081381,-0.564809,0.048218,0.000000,0.000000,0.000000,1.064701,-9.750097,5.125421,0.041546,-0.544161,0.089484,0.000000,0.000000,0.000000
0.081000,1.720747,-7.591752,9.038734,0.074113,-0.563093,0.048481,0.000000,0.000000,0.000000,1.079994,-9.737989,5.117352,0.038935,-0.543609,0.089612,0.000000,0.000000,0.000000
0.082000,1.718144,-7.587383,9.033954,0.066844,-0.561377,0.048745,0.000000,0.000000,0.000000,1.095287,-9.725881,5.109283,0.036325,-0.543057,0.089739,0.000000,0.000000,0.000000
0.082000,1.715540,-7.583014,9.029174,0.059575,-0.559660,0.049008,0.000000,0.000000,0.000000,1.110579,-9.713773,5.101215,0.033715,-0.542506,0.089866,0.000000,0.000000,0.000000
0.083000,1.712936,-7.578644,9.024393,0.052307,-0.557944,0.049271,0.000000,0.000000,0.000000,1.125872,-9.701665,5.093146,0.031105,-0.541954,0.089993,0.000000,0.000000,0.000000
0.083000,1.710332,-7.574275,9.019613,0.045038,-0.556227,0.049535,0.000000,0.000000,0.000000,1.141165,-9.689557,5.085077,0.028494,-0.541402,0.090120,0.000000,0.000000,0.000000
0.084000,1.706028,-7.573452,9.012640,0.040442,-0.555855,0.050230,0.000000,0.000000,0.000000,1.139262,-9.677078,5.061924,0.023392,-0.537296,0.091016,0.000000,0.000000,0.000000
0.084000,1.701723,-7.572630,9.005667,0.035847,-0.555482,0.050925,0.000000,0.000000,0.000000,1.137359,-9.664599,5.038771,0.018289,-0.533190,0.091912,0.000000,0.000000,0.000000
0.085000,1.697418,-7.571808,8.998694,0.031252,-0.555109,0.051620,0.000000,0.000000,0.000000,1.135455,-9.652121,5.015617,0.013187,-0.529083,0.092808,0.000000,0.000000,0.000000
0.085000,1.693114,-7.570986,8.991721,0.026656,-0.554737,0.052315,0.000000,0.000000,0.000000,1.133552,-9.639642,4.992464,0.008084,-0.524977,0.093703,0.000000,0.000000,0.000000
0.086000,1.688809,-7.570163,8.984748,0.022061,-0.554364,0.053010,0.000000,0.000000,0.000000,1.131649,-9.627162,4.969310,0.002982,-0.520871,0.094599,0.000000,0.000000,0.000000
0.086000,1.684504,-7.569341,8.977775,0.017466,-0.553991,0.053705,0.000000,0.000000,0.000000,1.129746,-9.614683,4.946157,-0.002120,-0.516765,0.095495,0.000000,0.000000,0.000000
0.086000,1.680200,-7.568519,8.970802,0.012870,-0.553619,0.054400,0.000000,0.000000,0.000000,1.127843,-9.602204,4.923004,-0.007223,-0.512658,0.096391,0.000000,0.000000,0.000000
0.087000,1.675895,-7.567696,8.963829,0.008275,-0.553246,0.055096,0.000000,0.000000,0.000000,1.125939,-9.589725,4.899850,-0.012325,-0.508552,0.097286,0.000000,0.000000,0.000000
0.087000,1.671590,-7.566874,8.956856,0.003680,-0.552873,0.055791,0.000000,0.000000,0.000000,1.124036,-9.577247,4.876697,-0.017428,-0.504446,0.098182,0.000000,0.000000,0.000000
0.088000,1.667285,-7.566051,8.949883,-0.000916,-0.552501,0.056486,0.000000,0.000000,0.000000,1.122133,-9.564768,4.853544,-0.022530,-0.500340,0.099078,0.000000,0.000000,0.000000
0.088000,1.662981,-7.565229,8.942909,-0.005511,-0.552128,0.057181,0.000000,0.000000,0.000000,1.120230,-9.552289,4.830390,-0.027633,-0.496233,0.099974,0.000000,0.000000,0.000000
0.089000,1.658676,-7.564407,8.935937,-0.010107,-0.551755,0.057876,0.000000,0.000000,0.000000,1.118327,-9.539810,4.807237,-0.032735,-0.492127,0.100869,0.000000,0.000000,0.000000
0.089000,1.654371,-7.563584,8.928964,-0.014702,-0.551383,0.058571,0.000000,0.000000,0.000000,1.116423,-9.527331,4.784083,-0.037838,-0.488021,0.101765,0.000000,0.000000,0.000000
0.090000,1.649688,-7.564403,8.922890,-0.021590,-0.551133,0.059729,0.000000,0.000000,0.000000,1.125081,-9.517512,4.780972,-0.044240,-0.481856,0.103277,0.000000,0.000000,0.000000
0.090000,1.644625,-7.566861,8.917714,-0.030770,-0.551006,0.061348,0.000000,0.000000,0.000000,1.144300,-9.510353,4.797901,-0.051942,-0.473632,0.105406,0.000000,0.000000,0.000000
0.091000,1.639563,-7.569320,8.912539,-0.039950,-0.550878,0.062968,0.000000,0.000000,0.000000,1.163519,-9.503194,4.814831,-0.059645,-0.465408,0.107534,0.000000,0.000000,0.000000
0.091000,1.634501,-7.571779,8.907363,-0.049131,-0.550751,0.064587,0.000000,0.000000,0.000000,1.182737,-9.496035,4.831761,-0.067347,-0.457185,0.109663,0.000000,0.000000,0.000000
0.092000,1.629438,-7.574237,8.902188,-0.058311,-0.550624,0.066207,0.000000,0.000000,0.000000,1.201956,-9.488875,4.848691,-0.075049,-0.448961,0.111792,0.000000,0.000000,0.000000
0.092000,1.624376,-7.576696,8.897013,-0.067491,-0.550497,0.067827,0.000000,0.000000,0.000000,1.221175,-9.481716,4.865621,-0.082752,-0.440737,0.113920,0.000000,0.000000,0.000000
0.093000,1.619313,-7.579154,8.891837,-0.076671,-0.550370,0.069446,0.000000,0.000000,0.000000,1.240393,-9.474557,4.882550,-0.090454,-0.432514,0.116049,0.000000,0.000000,0.000000
0.093000,1.614251,-7.581614,8.886662,-0.085852,-0.550242,0.071066,0.000000,0.000000,0.000000,1.259612,-9.467398,4.899480,-0.098156,-0.424290,0.118177,0.000000,0.000000,0.000000
0.094000,1.609188,-7.584072,8.881487,-0.095032,-0.550115,0.072685,0.000000,0.000000,0.000000,1.278831,-9.460238,4.916410,-0.105859,-0.416066,0.120306,0.000000,0.000000,0.000000
0.095000,1.604126,-7.586531,8.876311,-0.104212,-0.549988,0.074305,0.000000,0.000000,0.000000,1.298050,-9.453080,4.933340,-0.113561,-0.407843,0.122434,0.000000,0.000000,0.000000
0.095000,1.599064,-7.588989,8.871136,-0.113392,-0.549861,0.075925,0.000000,0.000000,0.000000,1.317268,-9.445921,4.950269,-0.121263,-0.399619,0.124563,0.000000,0.000000,0.000000
0.096000,1.594001,-7.591448,8.865960,-0.122573,-0.549734,0.077544,0.000000,0.000000,0.000000,1.336487,-9.438762,4.967199,-0.128966,-0.391395,0.126692,0.000000,0.000000,0.000000
0.096000,1.588939,-7.593907,8.860785,-0.131753,-0.549607,0.079164,0.000000,0.000000,0.000000,1.355706,-9.431602,4.984129,-0.136668,-0.383172,0.128820,0.000000,0.000000,0.000000
0.097000,1.583876,-7.596365,8.855610,-0.140933,-0.549479,0.080783,0.000000,0.000000,0.000000,1.374924,-9.424443,5.001059,-0.144370,-0.374948,0.130949,0.000000,0.000000,0.000000
0.097000,1.577975,-7.598300,8.852007,-0.149435,-0.548589,0.082985,0.000000,0.000000,0.000000,1.374860,-9.434077,4.987121,-0.147606,-0.370933,0.129662,0.000000,0.000000,0.000000
0.098000,1.572074,-7.600235,8.848404,-0.157936,-0.547699,0.085187,0.000000,0.000000,0.000000,1.374796,-9.443711,4.973183,-0.150842,-0.366918,0.128376,0.000000,0.000000,0.000000
0.098000,1.566173,-7.602170,8.844800,-0.166437,-0.546808,0.087389,0.000000,0.000000,0.000000,1.374732,-9.453345,4.959246,-0.154077,-0.362903,0.127090,0.000000,0.000000,0.000000
0.099000,1.560272,-7.604105,8.841197,-0.174938,-0.545918,0.089591,0.000000,0.000000,0.000000,1.374668,-9.462980,4.945308,-0.157313,-0.358887,0.125803,0.000000,0.000000,0.000000
0.099000,1.554371,-7.606040,8.837594,-0.183440,-0.545027,0.091793,0.000000,0.000000,0.000000,1.374604,-9.472614,4.931370,-0.160548,-0.354872,0.124517,0.000000,0.000000,0.000000
0.100000,1.548470,-7.607975,8.833991,-0.191941,-0.544137,0.093995,0.000000,0.000000,0.000000,1.374540,-9.482248,4.917432,-0.163784,-0.350857,0.123231,0.000000,0.000000,0.000000
0.100000,1.542568,-7.609909,8.830387,-0.200442,-0.543247,0.096197,0.000000,0.000000,0.000000,1.374476,-9.491882,4.903495,-0.167020,-0.346842,0.121945,0.000000,0.000000,0.000000
0.101000,1.536667,-7.611844,8.826784,-0.208944,-0.542356,0.098399,0.000000,0.000000,0.000000,1.374412,-9.501516,4.889557,-0.170255,-0.342827,0.120658,0.000000,0.000000,0.000000
0.101000,1.530766,-7.613779,8.823181,-0.217445,-0.541466,0.100601,0.000000,0.000000,0.000000,1.374348,-9.511150,4.875619,-0.173491,-0.338812,0.119372,0.000000,0.000000,0.000000
0.102000,1.524865,-7.615714,8.819578,-0.225946,-0.540576,0.102802,0.000000,0.000000,0.000000,1.374284,-9.520784,4.861681,-0.176726,-0.334796,0.118086,0.000000,0.000000,0.000000
0.102000,1.518964,-7.617649,8.815975,-0.234448,-0.539685,0.105004,0.000000,0.000000,0.000000,1.374219,-9.530419,4.847744,-0.179962,-0.330781,0.116799,0.000000,0.000000,0.000000
0.102000,1.513063,-7.619584,8.812371,-0.242949,-0.538795,0.107206,0.000000,0.000000,0.000000,1.374155,-9.540053,4.833806,-0.183197,-0.326766,0.115513,0.000000,0.000000,0.000000
0.103000,1.507162,-7.621518,8.808768,-0.251450,-0.537904,0.109408,0.000000,0.000000,0.000000,1.374091,-9.549687,4.819869,-0.186433,-0.322751,0.114227,0.000000,0.000000,0.000000
0.103000,1.504699,-7.621938,8.802416,-0.259322,-0.536311,0.111557,0.000000,0.000000,0.000000,1.369561,-9.547745,4.803588,-0.190838,-0.320373,0.111735,0.000000,0.000000,0.000000
0.104000,1.505674,-7.620842,8.793315,-0.266563,-0.534014,0.113653,0.000000,0.000000,0.000000,1.360563,-9.534226,4.784966,-0.196411,-0.319631,0.108037,0.000000,0.000000,0.000000
0.104000,1.506649,-7.619745,8.784214,-0.273805,-0.531717,0.115750,0.000000,0.000000,0.000000,1.351566,-9.520707,4.766344,-0.201985,-0.318889,0.104339,0.000000,0.000000,0.000000
0.105000,1.507625,-7.618649,8.775112,-0.281047,-0.529420,0.117846,0.000000,0.000000,0.000000,1.342569,-9.507188,4.747721,-0.207559,-0.318147,0.100641,0.000000,0.000000,0.000000
0.105000,1.508600,-7.617553,8.766011,-0.288289,-0.527123,0.119942,0.000000,0.000000,0.000000,1.333571,-9.493670,4.729099,-0.213132,-0.317406,0.096943,0.000000,0.000000,0.000000
0.106000,1.509575,-7.616457,8.756910,-0.295530,-0.524827,0.122038,0.000000,0.000000,0.000000,1.324574,-9.480150,4.710476,-0.218706,-0.316664,0.093245,0.000000,0.000000,0.000000
0.106000,1.510550,-7.615361,8.747808,-0.302772,-0.522530,0.124135,0.000000,0.000000,0.000000,1.315577,-9.466631,4.691854,-0.224280,-0.315922,0.089547,0.000000,0.000000,0.000000
0.107000,1.511526,-7.614265,8.738708,-0.310014,-0.520233,0.126231,0.000000,0.000000,0.000000,1.306579,-9.453113,4.673231,-0.229853,-0.315181,0.085849,0.000000,0.000000,0.000000
0.107000,1.512501,-7.613169,8.729607,-0.317256,-0.517936,0.128327,0.000000,0.000000,0.000000,1.297582,-9.439593,4.654609,-0.235427,-0.314439,0.082151,0.000000,0.000000,0.000000
0.108000,1.513476,-7.612073,8.720505,-0.324497,-0.515639,0.130423,0.000000,0.000000,0.000000,1.288585,-9.426075,4.635986,-0.241001,-0.313697,0.078453,0.000000,0.000000,0.000000
0.108000,1.514452,-7.610977,8.711404,-0.331739,-0.513342,0.132519,0.000000,0.000000,0.000000,1.279588,-9.412556,4.617364,-0.246574,-0.312955,0.074755,0.000000,0.000000,0.000000
0.109000,1.515427,-7.609880,8.702303,-0.338981,-0.511045,0.134616,0.000000,0.000000,0.000000,1.270590,-9.399036,4.598742,-0.252148,-0.312214,0.071057,0.000000,0.000000,0.000000
0.110000,1.516402,-7.608785,8.693201,-0.346223,-0.508749,0.136712,0.000000,0.000000,0.000000,1.261593,-9.385518,4.580119,-0.257721,-0.311472,0.067359,0.000000,0.000000,0.000000
0.110000,1.517377,-7.607688,8.684100,-0.353464,-0.506452,0.138808,0.000000,0.000000,0.000000,1.252596,-9.371999,4.561497,-0.263295,-0.310730,0.063661,0.000000,0.000000,0.000000
0.111000,1.522303,-7.601183,8.676748,-0.360607,-0.503970,0.140377,0.000000,0.000000,0.000000,1.265711,-9.363067,4.564399,-0.270566,-0.309494,0.061192,0.000000,0.000000,0.000000
0.111000,1.527228,-7.594677,8.669396,-0.367751,-0.501489,0.141947,0.000000,0.000000,0.000000,1.278827,-9.354135,4.567301,-0.277836,-0.308258,0.058724,0.000000,0.000000,0.000000
0.112000,1.532153,-7.588172,8.662045,-0.374894,-0.499008,0.143517,0.000000,0.000000,0.000000,1.291943,-9.345202,4.570203,-0.285107,-0.307022,0.056255,0.000000,0.000000,0.000000
0.112000,1.537078,-7.581667,8.654693,-0.382037,-0.496526,0.145086,0.000000,0.000000,0.000000,1.305059,-9.336270,4.573105,-0.292377,-0.305786,0.053786,0.000000,0.000000,0.000000
0.113000,1.542004,-7.575161,8.647341,-0.389180,-0.494045,0.146656,0.000000,0.000000,0.000000,1.318175,-9.327338,4.576008,-0.299648,-0.304549,0.051317,0.000000,0.000000,0.000000
0.113000,1.546929,-7.568656,8.639989,-0.396323,-0.491563,0.148225,0.000000,0.000000,0.000000,1.331291,-9.318406,4.578910,-0.306918,-0.303313,0.048848,0.000000,0.000000,0.000000
0.114000,1.551854,-7.562150,8.632637,-0.403466,-0.489082,0.149795,0.000000,0.000000,0.000000,1.344407,-9.309474,4.581812,-0.314189,-0.302077,0.046379,0.000000,0.000000,0.000000
0.114000,1.556779,-7.555645,8.625285,-0.410610,-0.486601,0.151364,0.000000,0.000000,0.000000,1.357523,-9.300542,4.584714,-0.321459,-0.300841,0.043910,0.000000,0.000000,0.000000
0.115000,1.561705,-7.549140,8.617933,-0.417753,-0.484119,0.152934,0.000000,0.000000,0.000000,1.370639,-9.291610,4.587616,-0.328730,-0.299605,0.041441,0.000000,0.000000,0.000000
0.115000,1.566630,-7.542634,8.610581,-0.424896,-0.481638,0.154503,0.000000,0.000000,0.000000,1.383755,-9.282678,4.590519,-0.336000,-0.298368,0.038972,0.000000,0.000000,0.000000
0.116000,1.571555,-7.536129,8.603230,-0.432039,-0.479157,0.156073,0.000000,0.000000,0.000000,1.396871,-9.273746,4.593421,-0.343271,-0.297132,0.036504,0.000000,0.000000,0.000000
0.116000,1.576480,-7.529624,8.595878,-0.439182,-0.476675,0.157642,0.000000,0.000000,0.000000,1.409987,-9.264813,4.596323,-0.350541,-0.295896,0.034035,0.000000,0.000000,0.000000
0.117000,1.581406,-7.523118,8.588526,-0.446326,-0.474194,0.159212,0.000000,0.000000,0.000000,1.423103,-9.255881,4.599226,-0.357812,-0.294660,0.031566,0.000000,0.000000,0.000000
0.117000,1.588443,-7.515847,8.581882,-0.453831,-0.471431,0.160164,0.000000,0.000000,0.000000,1.434078,-9.249174,4.600229,-0.364165,-0.292976,0.029459,0.000000,0.000000,0.000000
0.117000,1.597593,-7.507810,8.575950,-0.461700,-0.468387,0.160499,0.000000,0.000000,0.000000,1.442913,-9.244692,4.599334,-0.369600,-0.290844,0.027714,0.000000,0.000000,0.000000
0.118000,1.606742,-7.499773,8.570017,-0.469569,-0.465343,0.160834,0.000000,0.000000,0.000000,1.451747,-9.240210,4.598439,-0.375036,-0.288712,0.025969,0.000000,0.000000,0.000000
0.118000,1.615892,-7.491735,8.564083,-0.477438,-0.462299,0.161169,0.000000,0.000000,0.000000,1.460582,-9.235727,4.597544,-0.380472,-0.286580,0.024224,0.000000,0.000000,0.000000
0.119000,1.625041,-7.483698,8.558150,-0.485306,-0.459256,0.161504,0.000000,0.000000,0.000000,1.469416,-9.231245,4.596650,-0.385908,-0.284448,0.022479,0.000000,0.000000,0.000000
0.119000,1.634191,-7.475661,8.552217,-0.493175,-0.456212,0.161839,0.000000,0.000000,0.000000,1.478251,-9.226763,4.595755,-0.391343,-0.282316,0.020734,0.000000,0.000000,0.000000
0.120000,1.643340,-7.467624,8.546284,-0.501044,-0.453168,0.162174,0.000000,0.000000,0.000000,1.487086,-9.222281,4.594860,-0.396779,-0.280184,0.018989,0.000000,0.000000,0.000000
0.120000,1.652490,-7.459587,8.540351,-0.508913,-0.450124,0.162509,0.000000,0.000000,0.000000,1.495920,-9.217797,4.593965,-0.402215,-0.278052,0.017244,0.000000,0.000000,0.000000
0.121000,1.661639,-7.451550,8.534418,-0.516781,-0.447080,0.162845,0.000000,0.000000,0.000000,1.504755,-9.213315,4.593070,-0.407650,-0.275921,0.015499,0.000000,0.000000,0.000000
0.121000,1.670789,-7.443512,8.528484,-0.524650,-0.444036,0.163180,0.000000,0.000000,0.000000,1.513590,-9.208833,4.592175,-0.413086,-0.273789,0.013754,0.000000,0.000000,0.000000
0.122000,1.679939,-7.435475,8.522552,-0.532519,-0.440992,0.163515,0.000000,0.000000,0.000000,1.522424,-9.204350,4.591280,-0.418522,-0.271657,0.012009,0.000000,0.000000,0.000000
0.122000,1.689088,-7.427438,8.516619,-0.540388,-0.437948,0.163850,0.000000,0.000000,0.000000,1.531259,-9.199868,4.590385,-0.423957,-0.269525,0.010264,0.000000,0.000000,0.000000
0.123000,1.698238,-7.419401,8.510685,-0.548256,-0.434904,0.164185,0.000000,0.000000,0.000000,1.540094,-9.195386,4.589490,-0.429393,-0.267393,0.008519,0.000000,0.000000,0.000000
0.123000,1.707387,-7.411364,8.504752,-0.556125,-0.431860,0.164520,0.000000,0.000000,0.000000,1.548928,-9.190904,4.588595,-0.434829,-0.265261,0.006774,0.000000,0.000000,0.000000
0.124000,1.715424,-7.405270,8.500382,-0.564886,-0.428134,0.164020,0.000000,0.000000,0.000000,1.566075,-9.192741,4.589652,-0.441218,-0.260979,0.004887,0.000000,0.000000,0.000000
0.124000,1.723462,-7.399175,8.496014,-0.573647,-0.424407,0.163520,0.000000,0.000000,0.000000,1.583222,-9.194580,4.590708,-0.447607,-0.256697,0.003000,0.000000,0.000000,0.000000
0.125000,1.731499,-7.393081,8.491644,-0.582408,-0.420681,0.163020,0.000000,0.000000,0.000000,1.600369,-9.196418,4.591764,-0.453996,-0.252415,0.001114,0.000000,0.000000,0.000000
0.126000,1.739536,-7.386986,8.487274,-0.591169,-0.416954,0.162521,0.000000,0.000000,0.000000,1.617516,-9.198256,4.592821,-0.460385,-0.248133,-0.000773,0.000000,0.000000,0.000000
0.126000,1.747573,-7.380891,8.482905,-0.599930,-0.413227,0.162021,0.000000,0.000000,0.000000,1.634663,-9.200094,4.593877,-0.466774,-0.243851,-0.002659,0.000000,0.000000,0.000000
0.127000,1.755610,-7.374797,8.478536,-0.608691,-0.409501,0.161521,0.000000,0.000000,0.000000,1.651810,-9.201932,4.594933,-0.473163,-0.239569,-0.004546,0.000000,0.000000,0.000000
0.127000,1.763647,-7.368702,8.474167,-0.617452,-0.405774,0.161021,0.000000,0.000000,0.000000,1.668957,-9.203771,4.595989,-0.479552,-0.235287,-0.006433,0.000000,0.000000,0.000000
0.128000,1.771685,-7.362608,8.469797,-0.626213,-0.402048,0.160521,0.000000,0.000000,0.000000,1.686104,-9.205608,4.597045,-0.485941,-0.231005,-0.008319,0.000000,0.000000,0.000000
0.128000,1.779722,-7.356514,8.465427,-0.634974,-0.398321,0.160021,0.000000,0.000000,0.000000,1.703251,-9.207447,4.598102,-0.492330,-0.226723,-0.010206,0.000000,0.000000,0.000000
0.129000,1.787759,-7.350419,8.461059,-0.643735,-0.394595,0.159521,0.000000,0.000000,0.000000,1.720398,-9.209285,4.599158,-0.498719,-0.222441,-0.012092,0.000000,0.000000,0.000000
0.129000,1.795796,-7.344325,8.456689,-0.652496,-0.390868,0.159022,0.000000,0.000000,0.000000,1.737545,-9.211123,4.600214,-0.505108,-0.218159,-0.013979,0.000000,0.000000,0.000000
0.130000,1.803833,-7.338230,8.452319,-0.661257,-0.387141,0.158522,0.000000,0.000000,0.000000,1.754692,-9.212961,4.601271,-0.511497,-0.213877,-0.015865,0.000000,0.000000,0.000000
0.130000,1.811871,-7.332136,8.447950,-0.670018,-0.383415,0.158022,0.000000,0.000000,0.000000,1.771839,-9.214799,4.602327,-0.517886,-0.209595,-0.017752,0.000000,0.000000,0.000000
0.131000,1.819130,-7.328145,8.445197,-0.678850,-0.379523,0.157333,0.000000,0.000000,0.000000,1.782662,-9.214581,4.600675,-0.523758,-0.205683,-0.019586,0.000000,0.000000,0.000000
0.131000,1.825611,-7.326259,8.444060,-0.687753,-0.375465,0.156455,0.000000,0.000000,0.000000,1.787160,-9.212309,4.596314,-0.529113,-0.202141,-0.021367,0.000000,0.000000,0.000000
0.132000,1.832092,-7.324372,8.442924,-0.696655,-0.371407,0.155577,0.000000,0.000000,0.000000,1.791658,-9.210035,4.591953,-0.534468,-0.198599,-0.023148,0.000000,0.000000,0.000000
0.132000,1.838573,-7.322485,8.441788,-0.705558,-0.367349,0.154699,0.000000,0.000000,0.000000,1.796156,-9.207763,4.587593,-0.539823,-0.195057,-0.024928,0.000000,0.000000,0.000000
0.133000,1.845054,-7.320599,8.440651,-0.714461,-0.363291,0.153822,0.000000,0.000000,0.000000,1.800654,-9.205489,4.583231,-0.545178,-0.191515,-0.026709,0.000000,0.000000,0.000000
0.133000,1.851536,-7.318712,8.439514,-0.723363,-0.359233,0.152944,0.000000,0.000000,0.000000,1.805152,-9.203216,4.578871,-0.550534,-0.187972,-0.028490,0.000000,0.000000,0.000000
0.134000,1.858017,-7.316826,8.438377,-0.732266,-0.355175,0.152066,0.000000,0.000000,0.000000,1.809650,-9.200943,4.574510,-0.555889,-0.184430,-0.030271,0.000000,0.000000,0.000000
0.134000,1.864498,-7.314939,8.437241,-0.741168,-0.351117,0.151188,0.000000,0.000000,0.000000,1.814148,-9.198669,4.570149,-0.561244,-0.180888,-0.032052,0.000000,0.000000,0.000000
0.135000,1.870979,-7.313053,8.436104,-0.750071,-0.347059,0.150310,0.000000,0.000000,0.000000,1.818646,-9.196397,4.565788,-0.566599,-0.177346,-0.033833,0.000000,0.000000,0.000000
0.135000,1.877460,-7.311166,8.434967,-0.758973,-0.343001,0.149432,0.000000,0.000000,0.000000,1.823144,-9.194123,4.561428,-0.571954,-0.173804,-0.035614,0.000000,0.000000,0.000000
0.136000,1.883942,-7.309280,8.433831,-0.767876,-0.338943,0.148554,0.000000,0.000000,0.000000,1.827642,-9.191851,4.557067,-0.577309,-0.170262,-0.037395,0.000000,0.000000,0.000000
0.136000,1.890423,-7.307394,8.432694,-0.776779,-0.334885,0.147676,0.000000,0.000000,0.000000,1.832140,-9.189577,4.552706,-0.582664,-0.166720,-0.039176,0.000000,0.000000,0.000000
0.137000,1.896904,-7.305507,8.431558,-0.785681,-0.330827,0.146798,0.000000,0.000000,0.000000,1.836638,-9.187304,4.548345,-0.588020,-0.163178,-0.040957,0.000000,0.000000,0.000000
0.137000,1.903385,-7.303620,8.430421,-0.794584,-0.326769,0.145921,0.000000,0.000000,0.000000,1.841136,-9.185031,4.543984,-0.593375,-0.159636,-0.042737,0.000000,0.000000,0.000000
0.138000,1.910923,-7.305063,8.428002,-0.803354,-0.322207,0.144928,0.000000,0.000000,0.000000,1.848383,-9.180605,4.533924,-0.598716,-0.156082,-0.043992,0.000000,0.000000,0.000000
0.138000,1.918460,-7.306506,8.425585,-0.812124,-0.317646,0.143935,0.000000,0.000000,0.000000,1.855631,-9.176180,4.523862,-0.604056,-0.152527,-0.045246,0.000000,0.000000,0.000000
0.139000,1.925997,-7.307949,8.423166,-0.820894,-0.313084,0.142943,0.000000,0.000000,0.000000,1.862878,-9.171754,4.513802,-0.609397,-0.148973,-0.046500,0.000000,0.000000,0.000000
0.139000,1.933535,-7.309392,8.420748,-0.829664,-0.308523,0.141950,0.000000,0.000000,0.000000,1.870126,-9.167329,4.503741,-0.614738,-0.145418,-0.047754,0.000000,0.000000,0.000000
0.140000,1.941073,-7.310835,8.418330,-0.838434,-0.303961,0.140958,0.000000,0.000000,0.000000,1.877373,-9.162903,4.493680,-0.620079,-0.141864,-0.049008,0.000000,0.000000,0.000000
0.140000,1.948610,-7.312278,8.415912,-0.847204,-0.299400,0.139965,0.000000,0.000000,0.000000,1.884621,-9.158478,4.483619,-0.625420,-0.138309,-0.050263,0.000000,0.000000,0.000000
0.141000,1.956148,-7.313721,8.413494,-0.855974,-0.294838,0.138972,0.000000,0.000000,0.000000,1.891868,-9.154052,4.473558,-0.630760,-0.134755,-0.051517,0.000000,0.000000,0.000000
0.141000,1.963685,-7.315164,8.411076,-0.864744,-0.290277,0.137980,0.000000,0.000000,0.000000,1.899116,-9.149627,4.463497,-0.636101,-0.131200,-0.052771,0.000000,0.000000,0.000000
0.141000,1.971223,-7.316607,8.408657,-0.873514,-0.285715,0.136987,0.000000,0.000000,0.000000,1.906363,-9.145201,4.453436,-0.641442,-0.127645,-0.054025,0.000000,0.000000,0.000000
0.142000,1.978760,-7.318050,8.406240,-0.882284,-0.281154,0.135995,0.000000,0.000000,0.000000,1.913611,-9.140776,4.443375,-0.646783,-0.124091,-0.055279,0.000000,0.000000,0.000000
0.142000,1.986297,-7.319493,8.403821,-0.891054,-0.276592,0.135002,0.000000,0.000000,0.000000,1.920858,-9.136350,4.433314,-0.652124,-0.120536,-0.056534,0.000000,0.000000,0.000000
0.143000,1.993835,-7.320936,8.401402,-0.899824,-0.272031,0.134010,0.000000,0.000000,0.000000,1.928106,-9.131925,4.423254,-0.657464,-0.116982,-0.057788,0.000000,0.000000,0.000000
0.143000,2.001373,-7.322379,8.398985,-0.908594,-0.267469,0.133017,0.000000,0.000000,0.000000,1.935353,-9.127499,4.413193,-0.662805,-0.113427,-0.059042,0.000000,0.000000,0.000000
0.144000,2.007056,-7.324047,8.394450,-0.916818,-0.263040,0.132264,0.000000,0.000000,0.000000,1.937543,-9.121228,4.406470,-0.668464,-0.109368,-0.059585,0.000000,0.000000,0.000000
0.144000,2.010885,-7.325942,8.387800,-0.924495,-0.258744,0.131749,0.000000,0.000000,0.000000,1.934675,-9.113111,4.403085,-0.674441,-0.104805,-0.059417,0.000000,0.000000,0.000000
0.145000,2.014714,-7.327836,8.381149,-0.932173,-0.254448,0.131235,0.000000,0.000000,0.000000,1.931808,-9.104995,4.399700,-0.680418,-0.100242,-0.059249,0.000000,0.000000,0.000000
0.145000,2.018543,-7.329730,8.374499,-0.939850,-0.250151,0.130721,0.000000,0.000000,0.000000,1.928940,-9.096878,4.396316,-0.686395,-0.095678,-0.059080,0.000000,0.000000,0.000000
0.146000,2.022372,-7.331625,8.367849,-0.947527,-0.245855,0.130207,0.000000,0.000000,0.000000,1.926072,-9.088761,4.392931,-0.692372,-0.091115,-0.058912,0.000000,0.000000,0.000000
0.146000,2.026201,-7.333519,8.361198,-0.955204,-0.241558,0.129692,0.000000,0.000000,0.000000,1.923204,-9.080646,4.389546,-0.698349,-0.086552,-0.058744,0.000000,0.000000,0.000000
0.147000,2.030031,-7.335413,8.354548,-0.962882,-0.237262,0.129178,0.000000,0.000000,0.000000,1.920336,-9.072529,4.386161,-0.704326,-0.081988,-0.058576,0.000000,0.000000,0.000000
0.147000,2.033860,-7.337307,8.347898,-0.970559,-0.232966,0.128664,0.000000,0.000000,0.000000,1.917468,-9.064412,4.382777,-0.710303,-0.077425,-0.058408,0.000000,0.000000,0.000000
0.148000,2.037689,-7.339201,8.341248,-0.978236,-0.228669,0.128150,0.000000,0.000000,0.000000,1.914601,-9.056295,4.379392,-0.716280,-0.072861,-0.058239,0.000000,0.000000,0.000000
0.148000,2.041518,-7.341096,8.334598,-0.985914,-0.224373,0.127636,0.000000,0.000000,0.000000,1.911733,-9.048179,4.376007,-0.722257,-0.068298,-0.058071,0.000000,0.000000,0.000000
0.149000,2.045347,-7.342990,8.327947,-0.993591,-0.220077,0.127121,0.000000,0.000000,0.000000,1.908865,-9.040062,4.372622,-0.728234,-0.063735,-0.057903,0.000000,0.000000,0.000000
0.149000,2.049176,-7.344884,8.321297,-1.001268,-0.215780,0.126607,0.000000,0.000000,0.000000,1.905997,-9.031946,4.369238,-0.734211,-0.059171,-0.057735,0.000000,0.000000,0.000000
0.150000,2.053005,-7.346778,8.314646,-1.008946,-0.211484,0.126093,0.000000,0.000000,0.000000,1.903129,-9.023829,4.365853,-0.740188,-0.054608,-0.057566,0.000000,0.000000,0.000000
0.150000,2.056835,-7.348673,8.307996,-1.016623,-0.207187,0.125579,0.000000,0.000000,0.000000,1.900261,-9.015713,4.362468,-0.746165,-0.050044,-0.057398,0.000000,0.000000,0.000000
0.151000,2.059696,-7.351857,8.297443,-1.020686,-0.204351,0.125605,0.000000,0.000000,0.000000,1.866909,-8.990834,4.343176,-0.750328,-0.047302,-0.053448,0.000000,0.000000,0.000000
0.151000,2.062558,-7.355042,8.286892,-1.024749,-0.201515,0.125632,0.000000,0.000000,0.000000,1.833556,-8.965955,4.323885,-0.754491,-0.044559,-0.049498,0.000000,0.000000,0.000000
0.152000,2.065420,-7.358226,8.276340,-1.028813,-0.198679,0.125659,0.000000,0.000000,0.000000,1.800204,-8.941076,4.304593,-0.758655,-0.041817,-0.045548,0.000000,0.000000,0.000000
0.152000,2.068282,-7.361411,8.265788,-1.032876,-0.195843,0.125686,0.000000,0.000000,0.000000,1.766851,-8.916198,4.285301,-0.762818,-0.039074,-0.041597,0.000000,0.000000,0.000000
0.153000,2.071143,-7.364595,8.255236,-1.036939,-0.193007,0.125713,0.000000,0.000000,0.000000,1.733498,-8.891319,4.266010,-0.766981,-0.036331,-0.037647,0.000000,0.000000,0.000000
0.153000,2.074005,-7.367780,8.244683,-1.041002,-0.190171,0.125740,0.000000,0.000000,0.000000,1.700146,-8.866440,4.246718,-0.771145,-0.033589,-0.033697,0.000000,0.000000,0.000000
0.154000,2.076867,-7.370965,8.234132,-1.045065,-0.187335,0.125767,0.000000,0.000000,0.000000,1.666793,-8.841561,4.227427,-0.775308,-0.030846,-0.029747,0.000000,0.000000,0.000000
0.154000,2.079729,-7.374149,8.223579,-1.049129,-0.184499,0.125793,0.000000,0.000000,0.000000,1.633440,-8.816683,4.208135,-0.779471,-0.028104,-0.025796,0.000000,0.000000,0.000000
0.155000,2.082590,-7.377333,8.213028,-1.053192,-0.181663,0.125820,0.000000,0.000000,0.000000,1.600088,-8.791804,4.188843,-0.783634,-0.025361,-0.021846,0.000000,0.000000,0.000000
0.155000,2.085452,-7.380518,8.202476,-1.057255,-0.178827,0.125847,0.000000,0.000000,0.000000,1.566735,-8.766925,4.169551,-0.787798,-0.022618,-0.017896,0.000000,0.000000,0.000000
0.156000,2.088314,-7.383702,8.191923,-1.061318,-0.175991,0.125874,0.000000,0.000000,0.000000,1.533383,-8.742046,4.150259,-0.791961,-0.019876,-0.013946,0.000000,0.000000,0.000000
0.157000,2.091176,-7.386887,8.181372,-1.065381,-0.173155,0.125901,0.000000,0.000000,0.000000,1.500030,-8.717168,4.130968,-0.796124,-0.017133,-0.009996,0.000000,0.000000,0.000000
0.157000,2.094037,-7.390071,8.170819,-1.069444,-0.170319,0.125928,0.000000,0.000000,0.000000,1.466677,-8.692289,4.111676,-0.800288,-0.014390,-0.006045,0.000000,0.000000,0.000000
0.158000,2.096907,-7.390740,8.158813,-1.075423,-0.166413,0.126130,0.000000,0.000000,0.000000,1.459401,-8.681720,4.101337,-0.807767,-0.008733,0.000157,0.000000,0.000000,0.000000
0.158000,2.099786,-7.388895,8.145350,-1.083317,-0.161435,0.126508,0.000000,0.000000,0.000000,1.478201,-8.685460,4.099950,-0.818562,-0.000159,0.008613,0.000000,0.000000,0.000000
0.159000,2.102664,-7.387049,8.131886,-1.091211,-0.156458,0.126886,0.000000,0.000000,0.000000,1.497000,-8.689200,4.098563,-0.829357,0.008414,0.017068,0.000000,0.000000,0.000000
0.159000,2.105542,-7.385203,8.118423,-1.099104,-0.151481,0.127264,0.000000,0.000000,0.000000,1.515800,-8.692941,4.097176,-0.840152,0.016987,0.025524,0.000000,0.000000,0.000000
0.160000,2.108420,-7.383357,8.104960,-1.106998,-0.146504,0.127642,0.000000,0.000000,0.000000,1.534600,-8.696681,4.095789,-0.850947,0.025560,0.033979,0.000000,0.000000,0.000000
0.160000,2.111298,-7.381511,8.091497,-1.114892,-0.141527,0.128020,0.000000,0.000000,0.000000,1.553400,-8.700421,4.094403,-0.861742,0.034134,0.042435,0.000000,0.000000,0.000000
0.161000,2.114176,-7.379665,8.078034,-1.122786,-0.136550,0.128398,0.000000,0.000000,0.000000,1.572199,-8.704162,4.093016,-0.872538,0.042707,0.050891,0.000000,0.000000,0.000000
0.161000,2.117054,-7.377819,8.064572,-1.130680,-0.131573,0.128776,0.000000,0.000000,0.000000,1.590999,-8.707901,4.091629,-0.883333,0.051280,0.059346,0.000000,0.000000,0.000000
0.162000,2.119932,-7.375973,8.051109,-1.138574,-0.126596,0.129155,0.000000,0.000000,0.000000,1.609799,-8.711641,4.090242,-0.894128,0.059853,0.067802,0.000000,0.000000,0.000000
0.162000,2.122811,-7.374127,8.037646,-1.146468,-0.121619,0.129533,0.000000,0.000000,0.000000,1.628599,-8.715382,4.088855,-0.904923,0.068427,0.076257,0.000000,0.000000,0.000000
0.163000,2.125689,-7.372281,8.024183,-1.154361,-0.116642,0.129911,0.000000,0.000000,0.000000,1.647398,-8.719122,4.087468,-0.915718,0.077000,0.084713,0.000000,0.000000,0.000000
0.163000,2.128567,-7.370435,8.010720,-1.162255,-0.111664,0.130289,0.000000,0.000000,0.000000,1.666198,-8.722862,4.086082,-0.926513,0.085573,0.093168,0.000000,0.000000,0.000000
0.164000,2.131445,-7.368589,7.997258,-1.170149,-0.106687,0.130667,0.000000,0.000000,0.000000,1.684998,-8.726603,4.084694,-0.937308,0.094146,0.101624,0.000000,0.000000,0.000000
0.164000,2.134323,-7.366743,7.983795,-1.178043,-0.101710,0.131045,0.000000,0.000000,0.000000,1.703798,-8.730343,4.083308,-0.948103,0.102720,0.110079,0.000000,0.000000,0.000000
0.165000,2.132977,-7.363760,7.980393,-1.186143,-0.096586,0.131202,0.000000,0.000000,0.000000,1.706991,-8.736027,4.085735,-0.949284,0.105277,0.104846,0.000000,0.000000,0.000000
0.165000,2.131631,-7.360778,7.976991,-1.194243,-0.091462,0.131360,0.000000,0.000000,0.000000,1.710184,-8.741711,4.088163,-0.950464,0.107834,0.099612,0.000000,0.000000,0.000000
0.166000,2.130284,-7.357796,7.973589,-1.202343,-0.086338,0.131518,0.000000,0.000000,0.000000,1.713377,-8.747395,4.090591,-0.951645,0.110390,0.094379,0.000000,0.000000,0.000000
0.166000,2.128938,-7.354813,7.970187,-1.210442,-0.081214,0.131675,0.000000,0.000000,0.000000,1.716570,-8.753078,4.093019,-0.952825,0.112947,0.089146,0.000000,0.000000,0.000000
0.167000,2.127592,-7.351830,7.966785,-1.218542,-0.076090,0.131833,0.000000,0.000000,0.000000,1.719764,-8.758762,4.095447,-0.954006,0.115504,0.083912,0.000000,0.000000,0.000000
0.167000,2.126245,-7.348848,7.963383,-1.226642,-0.070966,0.131991,0.000000,0.000000,0.000000,1.722957,-8.764446,4.097874,-0.955187,0.118061,0.078679,0.000000,0.000000,0.000000
0.168000,2.124899,-7.345865,7.959981,-1.234742,-0.065842,0.132148,0.000000,0.000000,0.000000,1.726150,-8.770129,4.100302,-0.956367,0.120618,0.073445,0.000000,0.000000,0.000000
0.168000,2.123553,-7.342883,7.956579,-1.242842,-0.060718,0.132306,0.000000,0.000000,0.000000,1.729343,-8.775813,4.102730,-0.957548,0.123175,0.068212,0.000000,0.000000,0.000000
0.169000,2.122206,-7.339900,7.953177,-1.250942,-0.055594,0.132464,0.000000,0.000000,0.000000,1.732536,-8.781497,4.105157,-0.958728,0.125732,0.062979,0.000000,0.000000,0.000000
0.169000,2.120860,-7.336918,7.949775,-1.259042,-0.050470,0.132621,0.000000,0.000000,0.000000,1.735730,-8.787181,4.107585,-0.959909,0.128289,0.057745,0.000000,0.000000,0.000000
0.170000,2.119514,-7.333935,7.946373,-1.267142,-0.045346,0.132779,0.000000,0.000000,0.000000,1.738923,-8.792865,4.110013,-0.961089,0.130846,0.052512,0.000000,0.000000,0.000000
0.170000,2.118168,-7.330953,7.942971,-1.275241,-0.040222,0.132937,0.000000,0.000000,0.000000,1.742116,-8.798549,4.112441,-0.962270,0.133403,0.047279,0.000000,0.000000,0.000000
0.171000,2.116821,-7.327970,7.939569,-1.283341,-0.035098,0.133094,0.000000,0.000000,0.000000,1.745309,-8.804233,4.114868,-0.963450,0.135960,0.042045,0.000000,0.000000,0.000000
0.171000,2.116080,-7.324129,7.936857,-1.291845,-0.029939,0.133241,0.000000,0.000000,0.000000,1.741521,-8.805003,4.107408,-0.965935,0.136150,0.037260,0.000000,0.000000,0.000000
0.172000,2.115942,-7.319429,7.934834,-1.300753,-0.024745,0.133377,0.000000,0.000000,0.000000,1.730750,-8.800859,4.090060,-0.969724,0.133973,0.032925,0.000000,0.000000,0.000000
0.172000,2.115805,-7.314729,7.932811,-1.309661,-0.019551,0.133514,0.000000,0.000000,0.000000,1.719980,-8.796717,4.072712,-0.973513,0.131796,0.028589,0.000000,0.000000,0.000000
0.172000,2.115668,-7.310029,7.930788,-1.318569,-0.014357,0.133650,0.000000,0.000000,0.000000,1.709210,-8.792573,4.055364,-0.977301,0.129619,0.024253,0.000000,0.000000,0.000000
0.173000,2.115531,-7.305329,7.928765,-1.327477,-0.009163,0.133786,0.000000,0.000000,0.000000,1.698439,-8.788430,4.038015,-0.981090,0.127442,0.019917,0.000000,0.000000,0.000000
0.173000,2.115393,-7.300629,7.926743,-1.336385,-0.003970,0.133922,0.000000,0.000000,0.000000,1.687669,-8.784286,4.020667,-0.984879,0.125265,0.015581,0.000000,0.000000,0.000000
0.174000,2.115256,-7.295929,7.924720,-1.345293,0.001224,0.134058,0.000000,0.000000,0.000000,1.676898,-8.780144,4.003319,-0.988668,0.123088,0.011245,0.000000,0.000000,0.000000
0.174000,2.115119,-7.291229,7.922697,-1.354201,0.006418,0.134195,0.000000,0.000000,0.000000,1.666128,-8.776000,3.985971,-0.992457,0.120911,0.006909,0.000000,0.000000,0.000000
0.175000,2.114982,-7.286530,7.920674,-1.363109,0.011612,0.134331,0.000000,0.000000,0.000000,1.655358,-8.771857,3.968623,-0.996246,0.118734,0.002573,0.000000,0.000000,0.000000
0.175000,2.114845,-7.281829,7.918652,-1.372017,0.016806,0.134467,0.000000,0.000000,0.000000,1.644587,-8.767714,3.951275,-1.000034,0.116557,-0.001763,0.000000,0.000000,0.000000
0.176000,2.114707,-7.277130,7.916628,-1.380925,0.022000,0.134603,0.000000,0.000000,0.000000,1.633817,-8.763571,3.933926,-1.003823,0.114380,-0.006099,0.000000,0.000000,0.000000
0.176000,2.114570,-7.272429,7.914606,-1.389833,0.027194,0.134739,0.000000,0.000000,0.000000,1.623047,-8.759427,3.916578,-1.007612,0.112203,-0.010435,0.000000,0.000000,0.000000
0.177000,2.114433,-7.267730,7.912583,-1.398741,0.032387,0.134875,0.000000,0.000000,0.000000,1.612276,-8.755284,3.899230,-1.011401,0.110026,-0.014771,0.000000,0.000000,0.000000
0.177000,2.114295,-7.263030,7.910560,-1.407648,0.037581,0.135012,0.000000,0.000000,0.000000,1.601506,-8.751141,3.881882,-1.015190,0.107849,-0.019107,0.000000,0.000000,0.000000
0.178000,2.117640,-7.262424,7.900395,-1.416567,0.043843,0.134854,0.000000,0.000000,0.000000,1.599224,-8.743595,3.871828,-1.025527,0.108388,-0.019802,0.000000,0.000000,0.000000
0.178000,2.120985,-7.261819,7.890229,-1.425486,0.050104,0.134696,0.000000,0.000000,0.000000,1.596942,-8.736050,3.861773,-1.035865,0.108928,-0.020498,0.000000,0.000000,0.000000
0.179000,2.124330,-7.261215,7.880064,-1.434404,0.056366,0.134539,0.000000,0.000000,0.000000,1.594660,-8.728505,3.851719,-1.046203,0.109467,-0.021193,0.000000,0.000000,0.000000
0.179000,2.127675,-7.260610,7.869899,-1.443323,0.062628,0.134381,0.000000,0.000000,0.000000,1.592378,-8.720960,3.841665,-1.056540,0.110006,-0.021889,0.000000,0.000000,0.000000
0.180000,2.131020,-7.260005,7.859733,-1.452242,0.068889,0.134223,0.000000,0.000000,0.000000,1.590096,-8.713414,3.831610,-1.066878,0.110545,-0.022584,0.000000,0.000000,0.000000
0.180000,2.134365,-7.259399,7.849568,-1.461161,0.075151,0.134066,0.000000,0.000000,0.000000,1.587815,-8.705869,3.821556,-1.077216,0.111084,-0.023280,0.000000,0.000000,0.000000
0.181000,2.137710,-7.258794,7.839402,-1.470079,0.081413,0.133908,0.000000,0.000000,0.000000,1.585533,-8.698324,3.811502,-1.087554,0.111623,-0.023975,0.000000,0.000000,0.000000
0.181000,2.141055,-7.258189,7.829237,-1.478998,0.087674,0.133750,0.000000,0.000000,0.000000,1.583251,-8.690779,3.801447,-1.097891,0.112162,-0.024671,0.000000,0.000000,0.000000
0.182000,2.144400,-7.257585,7.819072,-1.487917,0.093936,0.133593,0.000000,0.000000,0.000000,1.580969,-8.683233,3.791393,-1.108229,0.112702,-0.025367,0.000000,0.000000,0.000000
0.182000,2.147745,-7.256979,7.808906,-1.496835,0.100197,0.133435,0.000000,0.000000,0.000000,1.578687,-8.675688,3.781339,-1.118567,0.113241,-0.026062,0.000000,0.000000,0.000000
0.183000,2.151090,-7.256374,7.798741,-1.505754,0.106459,0.133277,0.000000,0.000000,0.000000,1.576405,-8.668142,3.771285,-1.128904,0.113780,-0.026758,0.000000,0.000000,0.000000
0.183000,2.154435,-7.255769,7.788576,-1.514673,0.112721,0.133120,0.000000,0.000000,0.000000,1.574123,-8.660598,3.761230,-1.139242,0.114319,-0.027453,0.000000,0.000000,0.000000
0.184000,2.157780,-7.255164,7.778410,-1.523592,0.118982,0.132962,0.000000,0.000000,0.000000,1.571841,-8.653052,3.751176,-1.149580,0.114858,-0.028149,0.000000,0.000000,0.000000
0.184000,2.164390,-7.257699,7.768769,-1.532573,0.126021,0.132815,0.000000,0.000000,0.000000,1.573288,-8.645377,3.753438,-1.159974,0.116488,-0.025822,0.000000,0.000000,0.000000
0.185000,2.174265,-7.263374,7.759652,-1.541617,0.133836,0.132679,0.000000,0.000000,0.000000,1.578464,-8.637573,3.768015,-1.170427,0.119210,-0.020472,0.000000,0.000000,0.000000
0.185000,2.184141,-7.269050,7.750535,-1.550661,0.141651,0.132543,0.000000,0.000000,0.000000,1.583639,-8.629768,3.782593,-1.180879,0.121931,-0.015123,0.000000,0.000000,0.000000
0.186000,2.194016,-7.274724,7.741419,-1.559705,0.149466,0.132407,0.000000,0.000000,0.000000,1.588815,-8.621964,3.797170,-1.191332,0.124652,-0.009774,0.000000,0.000000,0.000000
0.186000,2.203892,-7.280400,7.732302,-1.568749,0.157281,0.132270,0.000000,0.000000,0.000000,1.593990,-8.614160,3.811748,-1.201784,0.127373,-0.004425,0.000000,0.000000,0.000000
0.187000,2.213767,-7.286075,7.723186,-1.577793,0.165096,0.132134,0.000000,0.000000,0.000000,1.599166,-8.606356,3.826325,-1.212236,0.130095,0.000925,0.000000,0.000000,0.000000
0.188000,2.223643,-7.291750,7.714069,-1.586838,0.172911,0.131998,0.000000,0.000000,0.000000,1.604341,-8.598551,3.840903,-1.222688,0.132816,0.006274,0.000000,0.000000,0.000000
0.188000,2.233518,-7.297425,7.704952,-1.595882,0.180726,0.131862,0.000000,0.000000,0.000000,1.609517,-8.590747,3.855480,-1.233141,0.135537,0.011623,0.000000,0.000000,0.000000
0.189000,2.243393,-7.303100,7.695836,-1.604926,0.188541,0.131726,0.000000,0.000000,0.000000,1.614692,-8.582942,3.870058,-1.243593,0.138259,0.016973,0.000000,0.000000,0.000000
0.189000,2.253269,-7.308775,7.686719,-1.613970,0.196356,0.131589,0.000000,0.000000,0.000000,1.619867,-8.575138,3.884635,-1.254045,0.140980,0.022322,0.000000,0.000000,0.000000
0.190000,2.263144,-7.314450,7.677602,-1.623014,0.204171,0.131453,0.000000,0.000000,0.000000,1.625043,-8.567333,3.899213,-1.264498,0.143701,0.027671,0.000000,0.000000,0.000000
0.190000,2.273020,-7.320126,7.668486,-1.632058,0.211986,0.131317,0.000000,0.000000,0.000000,1.630218,-8.559529,3.913790,-1.274950,0.146422,0.033021,0.000000,0.000000,0.000000
0.191000,2.282895,-7.325800,7.659369,-1.641102,0.219801,0.131181,0.000000,0.000000,0.000000,1.635394,-8.551724,3.928368,-1.285402,0.149144,0.038370,0.000000,0.000000,0.000000
0.191000,2.292771,-7.331476,7.650252,-1.650146,0.227616,0.131045,0.000000,0.000000,0.000000,1.640569,-8.543921,3.942945,-1.295855,0.151865,0.043719,0.000000,0.000000,0.000000
0.192000,2.296858,-7.337344,7.633307,-1.658848,0.235471,0.131165,0.000000,0.000000,0.000000,1.646902,-8.552423,3.920920,-1.305888,0.157755,0.055107,0.000000,0.000000,0.000000
0.192000,2.300945,-7.343213,7.616362,-1.667550,0.243325,0.131285,0.000000,0.000000,0.000000,1.653235,-8.560926,3.898895,-1.315921,0.163646,0.066495,0.000000,0.000000,0.000000
0.193000,2.305032,-7.349081,7.599417,-1.676252,0.251180,0.131405,0.000000,0.000000,0.000000,1.659568,-8.569429,3.876870,-1.325954,0.169536,0.077883,0.000000,0.000000,0.000000
0.193000,2.309120,-7.354949,7.582471,-1.684954,0.259034,0.131525,0.000000,0.000000,0.000000,1.665901,-8.577932,3.854845,-1.335987,0.175426,0.089271,0.000000,0.000000,0.000000
0.194000,2.313207,-7.360818,7.565526,-1.693656,0.266889,0.131645,0.000000,0.000000,0.000000,1.672234,-8.586435,3.832820,-1.346020,0.181317,0.100659,0.000000,0.000000,0.000000
0.194000,2.317294,-7.366686,7.548581,-1.702358,0.274744,0.131765,0.000000,0.000000,0.000000,1.678568,-8.594938,3.810795,-1.356053,0.187207,0.112046,0.000000,0.000000,0.000000
0.195000,2.321381,-7.372555,7.531635,-1.711060,0.282598,0.131885,0.000000,0.000000,0.000000,1.684901,-8.603440,3.788769,-1.366086,0.193098,0.123434,0.000000,0.000000,0.000000
0.195000,2.325469,-7.378423,7.514690,-1.719762,0.290453,0.132005,0.000000,0.000000,0.000000,1.691234,-8.611943,3.766744,-1.376119,0.198988,0.134822,0.000000,0.000000,0.000000
0.196000,2.329556,-7.384292,7.497745,-1.728464,0.298307,0.132125,0.000000,0.000000,0.000000,1.697567,-8.620446,3.744719,-1.386153,0.204879,0.146210,0.000000,0.000000,0.000000
0.196000,2.333643,-7.390160,7.480800,-1.737166,0.306162,0.132245,0.000000,0.000000,0.000000,1.703900,-8.628949,3.722694,-1.396186,0.210769,0.157598,0.000000,0.000000,0.000000
0.197000,2.337730,-7.396029,7.463854,-1.745868,0.314017,0.132366,0.000000,0.000000,0.000000,1.710233,-8.637452,3.700669,-1.406219,0.216659,0.168986,0.000000,0.000000,0.000000
0.197000,2.341818,-7.401897,7.446909,-1.754570,0.321871,0.132486,0.000000,0.000000,0.000000,1.716566,-8.645955,3.678643,-1.416252,0.222550,0.180373,0.000000,0.000000,0.000000
0.198000,2.345905,-7.407765,7.429964,-1.763272,0.329726,0.132606,0.000000,0.000000,0.000000,1.722899,-8.654458,3.656618,-1.426285,0.228440,0.191761,0.000000,0.000000,0.000000
0.198000,2.348908,-7.415149,7.415305,-1.771598,0.336832,0.132453,0.000000,0.000000,0.000000,1.750257,-8.675182,3.647411,-1.436175,0.237303,0.200794,0.000000,0.000000,0.000000
0.199000,2.350826,-7.424048,7.402933,-1.779547,0.343191,0.132026,0.000000,0.000000,0.000000,1.798642,-8.708128,3.651020,-1.445922,0.249139,0.207470,0.000000,0.000000,0.000000
0.199000,2.352745,-7.432947,7.390560,-1.787497,0.349549,0.131600,0.000000,0.000000,0.000000,1.847026,-8.741075,3.654629,-1.455669,0.260974,0.214147,0.000000,0.000000,0.000000
0.200000,2.354663,-7.441846,7.378188,-1.795446,0.355908,0.131173,0.000000,0.000000,0.000000,1.895411,-8.774020,3.658239,-1.465416,0.272810,0.220823,0.000000,0.000000,0.000000
0.200000,2.356581,-7.450746,7.365815,-1.803396,0.362266,0.130747,0.000000,0.000000,0.000000,1.943796,-8.806966,3.661848,-1.475163,0.284646,0.227500,0.000000,0.000000,0.000000
0.201000,2.358500,-7.459645,7.353443,-1.811345,0.368625,0.130321,0.000000,0.000000,0.000000,1.992180,-8.839911,3.665458,-1.484910,0.296481,0.234176,0.000000,0.000000,0.000000
0.201000,2.360418,-7.468544,7.341070,-1.819295,0.374983,0.129894,0.000000,0.000000,0.000000,2.040565,-8.872857,3.669067,-1.494657,0.308317,0.240853,0.000000,0.000000,0.000000
0.202000,2.362337,-7.477443,7.328698,-1.827244,0.381342,0.129468,0.000000,0.000000,0.000000,2.088949,-8.905804,3.672677,-1.504404,0.320153,0.247529,0.000000,0.000000,0.000000
0.202000,2.364255,-7.486342,7.316325,-1.835194,0.387700,0.129042,0.000000,0.000000,0.000000,2.137334,-8.938749,3.676286,-1.514151,0.331988,0.254206,0.000000,0.000000,0.000000
0.203000,2.366174,-7.495241,7.303953,-1.843143,0.394058,0.128615,0.000000,0.000000,0.000000,2.185718,-8.971695,3.679895,-1.523898,0.343824,0.260882,0.000000,0.000000,0.000000
0.203000,2.368092,-7.504140,7.291580,-1.851093,0.400417,0.128189,0.000000,0.000000,0.000000,2.234103,-9.004641,3.683505,-1.533645,0.355660,0.267559,0.000000,0.000000,0.000000
0.203000,2.370010,-7.513040,7.279208,-1.859042,0.406775,0.127763,0.000000,0.000000,0.000000,2.282487,-9.037587,3.687114,-1.543392,0.367495,0.274235,0.000000,0.000000,0.000000
0.204000,2.371929,-7.521939,7.266835,-1.866992,0.413134,0.127336,0.000000,0.000000,0.000000,2.330872,-9.070533,3.690724,-1.553139,0.379331,0.280912,0.000000,0.000000,0.000000
0.204000,2.373847,-7.530838,7.254463,-1.874941,0.419492,0.126910,0.000000,0.000000,0.000000,2.379256,-9.103478,3.694333,-1.562886,0.391167,0.287588,0.000000,0.000000,0.000000
0.205000,2.377314,-7.545268,7.222960,-1.881389,0.425269,0.126027,0.000000,0.000000,0.000000,2.412810,-9.140504,3.719029,-1.564275,0.399589,0.281399,0.000000,0.000000,0.000000
0.205000,2.380781,-7.559697,7.191456,-1.887838,0.431045,0.125143,0.000000,0.000000,0.000000,2.446363,-9.177530,3.743725,-1.565664,0.408012,0.275210,0.000000,0.000000,0.000000
0.206000,2.384248,-7.574126,7.159953,-1.894286,0.436822,0.124260,0.000000,0.000000,0.000000,2.479917,-9.214556,3.768421,-1.567053,0.416435,0.269020,0.000000,0.000000,0.000000
0.206000,2.387714,-7.588556,7.128450,-1.900734,0.442598,0.123377,0.000000,0.000000,0.000000,2.513470,-9.251581,3.793118,-1.568442,0.424858,0.262831,0.000000,0.000000,0.000000
0.207000,2.391181,-7.602985,7.096947,-1.907183,0.448375,0.122494,0.000000,0.000000,0.000000,2.547024,-9.288607,3.817814,-1.569831,0.433281,0.256642,0.000000,0.000000,0.000000
0.207000,2.394648,-7.617414,7.065444,-1.913631,0.454151,0.121610,0.000000,0.000000,0.000000,2.580578,-9.325633,3.842510,-1.571220,0.441703,0.250452,0.000000,0.000000,0.000000
0.208000,2.398115,-7.631844,7.033940,-1.920079,0.459927,0.120727,0.000000,0.000000,0.000000,2.614131,-9.362659,3.867206,-1.572609,0.450126,0.244263,0.000000,0.000000,0.000000
0.208000,2.401582,-7.646274,7.002437,-1.926528,0.465704,0.119844,0.000000,0.000000,0.000000,2.647685,-9.399684,3.891902,-1.573998,0.458549,0.238074,0.000000,0.000000,0.000000
0.209000,2.405049,-7.660703,6.970934,-1.932976,0.471480,0.118961,0.000000,0.000000,0.000000,2.681238,-9.436710,3.916598,-1.575387,0.466972,0.231884,0.000000,0.000000,0.000000
0.209000,2.408515,-7.675132,6.939431,-1.939425,0.477257,0.118077,0.000000,0.000000,0.000000,2.714792,-9.473736,3.941294,-1.576776,0.475395,0.225695,0.000000,0.000000,0.000000
0.210000,2.411982,-7.689562,6.907928,-1.945873,0.483033,0.117194,0.000000,0.000000,0.000000,2.748345,-9.510761,3.965991,-1.578165,0.483817,0.219506,0.000000,0.000000,0.000000
0.210000,2.415449,-7.703991,6.876424,-1.952321,0.488810,0.116311,0.000000,0.000000,0.000000,2.781899,-9.547788,3.990687,-1.579554,0.492240,0.213316,0.000000,0.000000,0.000000
0.211000,2.418916,-7.718421,6.844921,-1.958770,0.494586,0.115427,0.000000,0.000000,0.000000,2.815453,-9.584813,4.015383,-1.580943,0.500663,0.207127,0.000000,0.000000,0.000000
0.211000,2.419190,-7.734588,6.811459,-1.963577,0.498990,0.114370,0.000000,0.000000,0.000000,2.833133,-9.619410,4.013155,-1.579578,0.507025,0.196344,0.000000,0.000000,0.000000
0.212000,2.416273,-7.752491,6.776038,-1.966745,0.502021,0.113137,0.000000,0.000000,0.000000,2.834939,-9.651576,3.984004,-1.575458,0.511326,0.180966,0.000000,0.000000,0.000000
0.212000,2.413355,-7.770395,6.740617,-1.969912,0.505052,0.111905,0.000000,0.000000,0.000000,2.836746,-9.683743,3.954853,-1.571339,0.515627,0.165589,0.000000,0.000000,0.000000
0.213000,2.410438,-7.788299,6.705195,-1.973080,0.508083,0.110672,0.000000,0.000000,0.000000,2.838552,-9.715909,3.925702,-1.567220,0.519929,0.150211,0.000000,0.000000,0.000000
0.213000,2.407520,-7.806203,6.669775,-1.976247,0.511115,0.109440,0.000000,0.000000,0.000000,2.840359,-9.748075,3.896551,-1.563101,0.524230,0.134834,0.000000,0.000000,0.000000
0.214000,2.404602,-7.824107,6.634353,-1.979414,0.514146,0.108207,0.000000,0.000000,0.000000,2.842165,-9.780242,3.867400,-1.558981,0.528531,0.119456,0.000000,0.000000,0.000000
0.214000,2.401685,-7.842010,6.598932,-1.982582,0.517177,0.106975,0.000000,0.000000,0.000000,2.843972,-9.812408,3.838249,-1.554862,0.532833,0.104079,0.000000,0.000000,0.000000
0.215000,2.398767,-7.859914,6.563511,-1.985749,0.520208,0.105742,0.000000,0.000000,0.000000,2.845778,-9.844575,3.809098,-1.550743,0.537134,0.088702,0.000000,0.000000,0.000000
0.215000,2.395849,-7.877818,6.528090,-1.988916,0.523239,0.104510,0.000000,0.000000,0.000000,2.847585,-9.876741,3.779947,-1.546623,0.541435,0.073324,0.000000,0.000000,0.000000
0.216000,2.392931,-7.895722,6.492669,-1.992084,0.526271,0.103277,0.000000,0.000000,0.000000,2.849391,-9.908909,3.750796,-1.542504,0.545736,0.057947,0.000000,0.000000,0.000000
0.216000,2.390014,-7.913626,6.457247,-1.995251,0.529302,0.102045,0.000000,0.000000,0.000000,2.851198,-9.941075,3.721645,-1.538385,0.550038,0.042569,0.000000,0.000000,0.000000
0.217000,2.387096,-7.931530,6.421826,-1.998419,0.532333,0.100812,0.000000,0.000000,0.000000,2.853004,-9.973242,3.692494,-1.534266,0.554339,0.027192,0.000000,0.000000,0.000000
0.217000,2.384179,-7.949434,6.386405,-2.001586,0.535364,0.099580,0.000000,0.000000,0.000000,2.854811,-10.005408,3.663343,-1.530146,0.558640,0.011814,0.000000,0.000000,0.000000
0.218000,2.381261,-7.967338,6.350984,-2.004753,0.538395,0.098347,0.000000,0.000000,0.000000,2.856617,-10.037575,3.634192,-1.526027,0.562941,-0.003563,0.000000,0.000000,0.000000
0.218000,2.371403,-7.987556,6.315740,-2.010180,0.543942,0.095255,0.000000,0.000000,0.000000,2.846101,-10.043210,3.623986,-1.525991,0.571880,-0.018150,0.000000,0.000000,0.000000
0.219000,2.361545,-8.007773,6.280497,-2.015607,0.549489,0.092163,0.000000,0.000000,0.000000,2.835584,-10.048846,3.613780,-1.525955,0.580819,-0.032736,0.000000,0.000000,0.000000
0.220000,2.351687,-8.027990,6.245254,-2.021034,0.555036,0.089071,0.000000,0.000000,0.000000,2.825068,-10.054482,3.603574,-1.525919,0.589758,-0.047323,0.000000,0.000000,0.000000
0.220000,2.341830,-8.048208,6.210010,-2.026461,0.560583,0.085978,0.000000,0.000000,0.000000,2.814552,-10.060118,3.593368,-1.525884,0.598696,-0.061910,0.000000,0.000000,0.000000
0.221000,2.331972,-8.068426,6.174767,-2.031888,0.566130,0.082886,0.000000,0.000000,0.000000,2.804035,-10.065753,3.583162,-1.525848,0.607635,-0.076496,0.000000,0.000000,0.000000
0.221000,2.322114,-8.088644,6.139524,-2.037315,0.571678,0.079794,0.000000,0.000000,0.000000,2.793519,-10.071389,3.572955,-1.525812,0.616574,-0.091083,0.000000,0.000000,0.000000
0.222000,2.312256,-8.108861,6.104280,-2.042742,0.577224,0.076702,0.000000,0.000000,0.000000,2.783002,-10.077024,3.562749,-1.525776,0.625513,-0.105670,0.000000,0.000000,0.000000
0.222000,2.302398,-8.129079,6.069037,-2.048169,0.582772,0.073609,0.000000,0.000000,0.000000,2.772486,-10.082661,3.552543,-1.525740,0.634451,-0.120256,0.000000,0.000000,0.000000
0.223000,2.292541,-8.149297,6.033793,-2.053596,0.588319,0.070517,0.000000,0.000000,0.000000,2.761970,-10.088296,3.542337,-1.525704,0.643390,-0.134843,0.000000,0.000000,0.000000
0.223000,2.282683,-8.169515,5.998550,-2.059023,0.593866,0.067425,0.000000,0.000000,0.000000,2.751453,-10.093932,3.532131,-1.525668,0.652329,-0.149429,0.000000,0.000000,0.000000
0.224000,2.272825,-8.189733,5.963307,-2.064450,0.599413,0.064333,0.000000,0.000000,0.000000,2.740937,-10.099567,3.521925,-1.525632,0.661268,-0.164016,0.000000,0.000000,0.000000
0.224000,2.262967,-8.209949,5.928063,-2.069877,0.604960,0.061241,0.000000,0.000000,0.000000,2.730420,-10.105204,3.511719,-1.525596,0.670206,-0.178603,0.000000,0.000000,0.000000
0.225000,2.253109,-8.230167,5.892820,-2.075304,0.610507,0.058148,0.000000,0.000000,0.000000,2.719904,-10.110839,3.501513,-1.525561,0.679145,-0.193189,0.000000,0.000000,0.000000
0.225000,2.236234,-8.250168,5.854392,-2.080031,0.615073,0.054349,0.000000,0.000000,0.000000,2.688640,-10.111110,3.494330,-1.525805,0.686352,-0.201723,0.000000,0.000000,0.000000
0.226000,2.212341,-8.269951,5.812779,-2.084059,0.618658,0.049843,0.000000,0.000000,0.000000,2.636628,-10.106016,3.490170,-1.526330,0.691826,-0.204203,0.000000,0.000000,0.000000
0.226000,2.188448,-8.289734,5.771167,-2.088086,0.622243,0.045338,0.000000,0.000000,0.000000,2.584616,-10.100922,3.486010,-1.526855,0.697301,-0.206682,0.000000,0.000000,0.000000
0.227000,2.164555,-8.309516,5.729555,-2.092114,0.625829,0.040832,0.000000,0.000000,0.000000,2.532604,-10.095827,3.481851,-1.527380,0.702776,-0.209162,0.000000,0.000000,0.000000
0.227000,2.140662,-8.329299,5.687942,-2.096142,0.629414,0.036326,0.000000,0.000000,0.000000,2.480592,-10.090734,3.477691,-1.527905,0.708250,-0.211642,0.000000,0.000000,0.000000
0.228000,2.116769,-8.349082,5.646329,-2.100170,0.632999,0.031820,0.000000,0.000000,0.000000,2.428581,-10.085639,3.473531,-1.528430,0.713725,-0.214122,0.000000,0.000000,0.000000
0.228000,2.092876,-8.368865,5.604717,-2.104197,0.636584,0.027314,0.000000,0.000000,0.000000,2.376569,-10.080544,3.469371,-1.528955,0.719200,-0.216602,0.000000,0.000000,0.000000
0.229000,2.068983,-8.388648,5.563105,-2.108225,0.640170,0.022809,0.000000,0.000000,0.000000,2.324557,-10.075451,3.465212,-1.529480,0.724674,-0.219082,0.000000,0.000000,0.000000
0.229000,2.045090,-8.408431,5.521492,-2.112253,0.643755,0.018303,0.000000,0.000000,0.000000,2.272545,-10.070356,3.461052,-1.530005,0.730149,-0.221562,0.000000,0.000000,0.000000
0.230000,2.021197,-8.428214,5.479879,-2.116281,0.647340,0.013797,0.000000,0.000000,0.000000,2.220533,-10.065263,3.456892,-1.530530,0.735624,-0.224042,0.000000,0.000000,0.000000
0.230000,1.997304,-8.447996,5.438267,-2.120308,0.650926,0.009291,0.000000,0.000000,0.000000,2.168521,-10.060168,3.452733,-1.531055,0.741098,-0.226522,0.000000,0.000000,0.000000
0.231000,1.973411,-8.467779,5.396655,-2.124336,0.654511,0.004785,0.000000,0.000000,0.000000,2.116510,-10.055074,3.448573,-1.531580,0.746573,-0.229002,0.000000,0.000000,0.000000
0.231000,1.949518,-8.487562,5.355042,-2.128364,0.658096,0.000280,0.000000,0.000000,0.000000,2.064498,-10.049980,3.444413,-1.532105,0.752048,-0.231482,0.000000,0.000000,0.000000
0.232000,1.925625,-8.507345,5.313429,-2.132391,0.661681,-0.004226,0.000000,0.000000,0.000000,2.012486,-10.044886,3.440253,-1.532630,0.757522,-0.233962,0.000000,0.000000,0.000000
0.232000,1.895749,-8.520406,5.275605,-2.134233,0.662393,-0.009943,0.000000,0.000000,0.000000,1.968413,-10.035065,3.438503,-1.532331,0.768386,-0.232477,0.000000,0.000000,0.000000
0.233000,1.865873,-8.533465,5.237781,-2.136075,0.663104,-0.015661,0.000000,0.000000,0.000000,1.924341,-10.025244,3.436752,-1.532033,0.779249,-0.230992,0.000000,0.000000,0.000000
0.233000,1.835998,-8.546526,5.199957,-2.137917,0.663816,-0.021378,0.000000,0.000000,0.000000,1.880268,-10.015423,3.435001,-1.531734,0.790112,-0.229507,0.000000,0.000000,0.000000
0.234000,1.806122,-8.559586,5.162133,-2.139759,0.664527,-0.027095,0.000000,0.000000,0.000000,1.836195,-10.005602,3.433251,-1.531435,0.800975,-0.228022,0.000000,0.000000,0.000000
0.234000,1.776246,-8.572646,5.124309,-2.141601,0.665239,-0.032812,0.000000,0.000000,0.000000,1.792123,-9.995781,3.431500,-1.531137,0.811839,-0.226536,0.000000,0.000000,0.000000
0.234000,1.746370,-8.585707,5.086484,-2.143443,0.665950,-0.038529,0.000000,0.000000,0.000000,1.748050,-9.985960,3.429749,-1.530838,0.822702,-0.225051,0.000000,0.000000,0.000000
0.235000,1.716494,-8.598766,5.048660,-2.145285,0.666662,-0.044246,0.000000,0.000000,0.000000,1.703977,-9.976140,3.427999,-1.530539,0.833565,-0.223566,0.000000,0.000000,0.000000
0.235000,1.686618,-8.611827,5.010836,-2.147127,0.667373,-0.049963,0.000000,0.000000,0.000000,1.659905,-9.966319,3.426248,-1.530241,0.844428,-0.222081,0.000000,0.000000,0.000000
0.236000,1.656742,-8.624887,4.973012,-2.148969,0.668085,-0.055680,0.000000,0.000000,0.000000,1.615832,-9.956498,3.424498,-1.529942,0.855291,-0.220596,0.000000,0.000000,0.000000
0.236000,1.626866,-8.637947,4.935188,-2.150811,0.668796,-0.061397,0.000000,0.000000,0.000000,1.571760,-9.946677,3.422747,-1.529643,0.866155,-0.219111,0.000000,0.000000,0.000000
0.237000,1.596991,-8.651008,4.897364,-2.152653,0.669507,-0.067115,0.000000,0.000000,0.000000,1.527687,-9.936856,3.420996,-1.529345,0.877018,-0.217626,0.000000,0.000000,0.000000
0.237000,1.567115,-8.664067,4.859540,-2.154495,0.670219,-0.072832,0.000000,0.000000,0.000000,1.483614,-9.927035,3.419246,-1.529046,0.887881,-0.216141,0.000000,0.000000,0.000000
0.238000,1.537239,-8.677128,4.821715,-2.156337,0.670930,-0.078549,0.000000,0.000000,0.000000,1.439542,-9.917214,3.417495,-1.528748,0.898744,-0.214656,0.000000,0.000000,0.000000
0.238000,1.511733,-8.684488,4.787173,-2.157279,0.670534,-0.083987,0.000000,0.000000,0.000000,1.404511,-9.919765,3.422421,-1.525364,0.906206,-0.212308,0.000000,0.000000,0.000000
0.239000,1.490596,-8.686151,4.755911,-2.157320,0.669029,-0.089147,0.000000,0.000000,0.000000,1.378521,-9.934688,3.434023,-1.518896,0.910266,-0.209097,0.000000,0.000000,0.000000
0.239000,1.469459,-8.687812,4.724650,-2.157361,0.667524,-0.094307,0.000000,0.000000,0.000000,1.352532,-9.949611,3.445625,-1.512429,0.914326,-0.205886,0.000000,0.000000,0.000000
0.240000,1.448322,-8.689474,4.693389,-2.157402,0.666019,-0.099467,0.000000,0.000000,0.000000,1.326543,-9.964533,3.457227,-1.505961,0.918386,-0.202675,0.000000,0.000000,0.000000
0.240000,1.427186,-8.691135,4.662127,-2.157444,0.664514,-0.104627,0.000000,0.000000,0.000000,1.300554,-9.979456,3.468829,-1.499493,0.922446,-0.199464,0.000000,0.000000,0.000000
0.241000,1.406049,-8.692797,4.630866,-2.157485,0.663009,-0.109787,0.000000,0.000000,0.000000,1.274564,-9.994379,3.480432,-1.493025,0.926506,-0.196253,0.000000,0.000000,0.000000
0.241000,1.384912,-8.694459,4.599605,-2.157526,0.661505,-0.114947,0.000000,0.000000,0.000000,1.248575,-10.009301,3.492034,-1.486557,0.930566,-0.193042,0.000000,0.000000,0.000000
0.242000,1.363775,-8.696120,4.568343,-2.157567,0.660000,-0.120107,0.000000,0.000000,0.000000,1.222586,-10.024224,3.503636,-1.480089,0.934626,-0.189831,0.000000,0.000000,0.000000
0.242000,1.342639,-8.697783,4.537082,-2.157609,0.658495,-0.125267,0.000000,0.000000,0.000000,1.196596,-10.039146,3.515238,-1.473622,0.938685,-0.186621,0.000000,0.000000,0.000000
0.243000,1.321502,-8.699444,4.505820,-2.157650,0.656990,-0.130427,0.000000,0.000000,0.000000,1.170607,-10.054070,3.526840,-1.467154,0.942745,-0.183410,0.000000,0.000000,0.000000
0.243000,1.300365,-8.701106,4.474559,-2.157691,0.655485,-0.135586,0.000000,0.000000,0.000000,1.144618,-10.068992,3.538442,-1.460686,0.946805,-0.180199,0.000000,0.000000,0.000000
0.244000,1.279228,-8.702767,4.443298,-2.157732,0.653980,-0.140746,0.000000,0.000000,0.000000,1.118629,-10.083915,3.550044,-1.454218,0.950865,-0.176988,0.000000,0.000000,0.000000
0.244000,1.258092,-8.704430,4.412036,-2.157773,0.652476,-0.145906,0.000000,0.000000,0.000000,1.092639,-10.098837,3.561646,-1.447750,0.954925,-0.173777,0.000000,0.000000,0.000000
0.245000,1.236955,-8.706091,4.380775,-2.157815,0.650971,-0.151066,0.000000,0.000000,0.000000,1.066650,-10.113760,3.573248,-1.441283,0.958985,-0.170566,0.000000,0.000000,0.000000
0.245000,1.218502,-8.695934,4.349190,-2.157412,0.648366,-0.155488,0.000000,0.000000,0.000000,1.039121,-10.114783,3.563471,-1.435054,0.962036,-0.170683,0.000000,0.000000,0.000000
0.246000,1.200048,-8.685778,4.317606,-2.157008,0.645760,-0.159910,0.000000,0.000000,0.000000,1.011592,-10.115807,3.553693,-1.428826,0.965086,-0.170799,0.000000,0.000000,0.000000
0.246000,1.181595,-8.675622,4.286021,-2.156605,0.643155,-0.164332,0.000000,0.000000,0.000000,0.984063,-10.116830,3.543916,-1.422597,0.968136,-0.170916,0.000000,0.000000,0.000000
0.247000,1.163142,-8.665465,4.254436,-2.156202,0.640550,-0.168754,0.000000,0.000000,0.000000,0.956534,-10.117853,3.534138,-1.416369,0.971187,-0.171033,0.000000,0.000000,0.000000
0.247000,1.144689,-8.655309,4.222852,-2.155799,0.637945,-0.173176,0.000000,0.000000,0.000000,0.929005,-10.118876,3.524360,-1.410140,0.974237,-0.171150,0.000000,0.000000,0.000000
0.248000,1.126236,-8.645152,4.191267,-2.155396,0.635340,-0.177598,0.000000,0.000000,0.000000,0.901476,-10.119900,3.514583,-1.403912,0.977287,-0.171266,0.000000,0.000000,0.000000
0.248000,1.107782,-8.634996,4.159683,-2.154992,0.632735,-0.182020,0.000000,0.000000,0.000000,0.873947,-10.120923,3.504805,-1.397684,0.980338,-0.171383,0.000000,0.000000,0.000000
0.249000,1.089329,-8.624840,4.128098,-2.154589,0.630130,-0.186442,0.000000,0.000000,0.000000,0.846418,-10.121946,3.495028,-1.391455,0.983388,-0.171500,0.000000,0.000000,0.000000
0.249000,1.070876,-8.614683,4.096514,-2.154186,0.627525,-0.190863,0.000000,0.000000,0.000000,0.818889,-10.122970,3.485250,-1.385227,0.986438,-0.171616,0.000000,0.000000,0.000000
0.250000,1.052423,-8.604527,4.064929,-2.153783,0.624920,-0.195285,0.000000,0.000000,0.000000,0.791360,-10.123993,3.475472,-1.378998,0.989489,-0.171733,0.000000,0.000000,0.000000
0.251000,1.033970,-8.594370,4.033345,-2.153380,0.622314,-0.199707,0.000000,0.000000,0.000000,0.763831,-10.125016,3.465695,-1.372770,0.992539,-0.171850,0.000000,0.000000,0.000000
0.251000,1.015516,-8.584214,4.001760,-2.152977,0.619709,-0.204129,0.000000,0.000000,0.000000,0.736302,-10.126040,3.455917,-1.366541,0.995589,-0.171967,0.000000,0.000000,0.000000
0.252000,0.997063,-8.574058,3.970176,-2.152573,0.617104,-0.208551,0.000000,0.000000,0.000000,0.708773,-10.127063,3.446140,-1.360313,0.998640,-0.172083,0.000000,0.000000,0.000000
0.252000,0.983656,-8.560152,3.941400,-2.152680,0.615086,-0.211875,0.000000,0.000000,0.000000,0.679612,-10.129221,3.433152,-1.349235,1.005540,-0.170723,0.000000,0.000000,0.000000
0.253000,0.975296,-8.542497,3.915433,-2.153296,0.613654,-0.214100,0.000000,0.000000,0.000000,0.648818,-10.132513,3.416956,-1.333308,1.016291,-0.167885,0.000000,0.000000,0.000000
0.253000,0.966936,-8.524842,3.889467,-2.153912,0.612222,-0.216326,0.000000,0.000000,0.000000,0.618025,-10.135804,3.400759,-1.317381,1.027041,-0.165048,0.000000,0.000000,0.000000
0.254000,0.958576,-8.507188,3.863500,-2.154528,0.610791,-0.218551,0.000000,0.000000,0.000000,0.587231,-10.139096,3.384562,-1.301453,1.037792,-0.162210,0.000000,0.000000,0.000000
0.254000,0.950216,-8.489532,3.837533,-2.155145,0.609359,-0.220776,0.000000,0.000000,0.000000,0.556437,-10.142388,3.368366,-1.285526,1.048542,-0.159372,0.000000,0.000000,0.000000
0.255000,0.941855,-8.471878,3.811567,-2.155761,0.607927,-0.223002,0.000000,0.000000,0.000000,0.525644,-10.145679,3.352169,-1.269599,1.059293,-0.156535,0.000000,0.000000,0.000000
0.255000,0.933495,-8.454224,3.785600,-2.156377,0.606496,-0.225227,0.000000,0.000000,0.000000,0.494850,-10.148972,3.335972,-1.253672,1.070043,-0.153697,0.000000,0.000000,0.000000
0.256000,0.925135,-8.436568,3.759633,-2.156993,0.605064,-0.227453,0.000000,0.000000,0.000000,0.464056,-10.152264,3.319776,-1.237745,1.080794,-0.150860,0.000000,0.000000,0.000000
0.256000,0.916775,-8.418914,3.733667,-2.157609,0.603632,-0.229678,0.000000,0.000000,0.000000,0.433263,-10.155555,3.303579,-1.221817,1.091544,-0.148022,0.000000,0.000000,0.000000
0.257000,0.908415,-8.401258,3.707700,-2.158226,0.602200,-0.231903,0.000000,0.000000,0.000000,0.402469,-10.158847,3.287382,-1.205890,1.102295,-0.145184,0.000000,0.000000,0.000000
0.257000,0.900054,-8.383604,3.681733,-2.158842,0.600769,-0.234129,0.000000,0.000000,0.000000,0.371676,-10.162139,3.271186,-1.189963,1.113045,-0.142347,0.000000,0.000000,0.000000
0.258000,0.891694,-8.365950,3.655767,-2.159458,0.599337,-0.236354,0.000000,0.000000,0.000000,0.340882,-10.165431,3.254989,-1.174036,1.123796,-0.139509,0.000000,0.000000,0.000000
0.258000,0.883334,-8.348294,3.629800,-2.160074,0.597905,-0.238579,0.000000,0.000000,0.000000,0.310088,-10.168722,3.238792,-1.158108,1.134547,-0.136672,0.000000,0.000000,0.000000
0.259000,0.874974,-8.330640,3.603833,-2.160691,0.596474,-0.240805,0.000000,0.000000,0.000000,0.279295,-10.172014,3.222595,-1.142181,1.145297,-0.133834,0.000000,0.000000,0.000000
0.259000,0.874110,-8.318089,3.590694,-2.162290,0.597095,-0.241018,0.000000,0.000000,0.000000,0.246563,-10.147130,3.220591,-1.141314,1.147981,-0.127034,0.000000,0.000000,0.000000
0.260000,0.873247,-8.305539,3.577556,-2.163890,0.597717,-0.241232,0.000000,0.000000,0.000000,0.213832,-10.122245,3.218586,-1.140447,1.150664,-0.120234,0.000000,0.000000,0.000000
0.260000,0.872384,-8.292989,3.564417,-2.165490,0.598338,-0.241445,0.000000,0.000000,0.000000,0.181100,-10.097361,3.216582,-1.139580,1.153348,-0.113434,0.000000,0.000000,0.000000
0.261000,0.871520,-8.280438,3.551278,-2.167090,0.598960,-0.241658,0.000000,0.000000,0.000000,0.148368,-10.072475,3.214577,-1.138713,1.156032,-0.106634,0.000000,0.000000,0.000000
0.261000,0.870657,-8.267888,3.538139,-2.168689,0.599582,-0.241872,0.000000,0.000000,0.000000,0.115637,-10.047591,3.212573,-1.137846,1.158715,-0.099834,0.000000,0.000000,0.000000
0.262000,0.869794,-8.255338,3.525000,-2.170289,0.600203,-0.242085,0.000000,0.000000,0.000000,0.082905,-10.022707,3.210568,-1.136978,1.161399,-0.093034,0.000000,0.000000,0.000000
0.262000,0.868930,-8.242788,3.511861,-2.171889,0.600825,-0.242298,0.000000,0.000000,0.000000,0.050174,-9.997822,3.208564,-1.136111,1.164083,-0.086234,0.000000,0.000000,0.000000
0.263000,0.868067,-8.230238,3.498722,-2.173489,0.601446,-0.242512,0.000000,0.000000,0.000000,0.017442,-9.972938,3.206559,-1.135244,1.166766,-0.079434,0.000000,0.000000,0.000000
0.263000,0.867204,-8.217688,3.485583,-2.175089,0.602068,-0.242725,0.000000,0.000000,0.000000,-0.015290,-9.948052,3.204555,-1.134377,1.169450,-0.072634,0.000000,0.000000,0.000000
0.264000,0.866340,-8.205137,3.472445,-2.176688,0.602690,-0.242938,0.000000,0.000000,0.000000,-0.048021,-9.923168,3.202550,-1.133510,1.172133,-0.065834,0.000000,0.000000,0.000000
0.264000,0.865477,-8.192587,3.459306,-2.178288,0.603311,-0.243152,0.000000,0.000000,0.000000,-0.080753,-9.898284,3.200546,-1.132643,1.174817,-0.059034,0.000000,0.000000,0.000000
0.265000,0.864614,-8.180037,3.446167,-2.179888,0.603933,-0.243365,0.000000,0.000000,0.000000,-0.113484,-9.873399,3.198541,-1.131775,1.177501,-0.052234,0.000000,0.000000,0.000000
0.265000,0.863751,-8.167486,3.433028,-2.181488,0.604554,-0.243578,0.000000,0.000000,0.000000,-0.146216,-9.848515,3.196537,-1.130908,1.180184,-0.045434,0.000000,0.000000,0.000000
0.266000,0.866640,-8.149152,3.414810,-2.183740,0.605597,-0.243110,0.000000,0.000000,0.000000,-0.163893,-9.821532,3.183109,-1.129963,1.183686,-0.034060,0.000000,0.000000,0.000000
0.266000,0.873283,-8.125032,3.391513,-2.186644,0.607061,-0.241960,0.000000,0.000000,0.000000,-0.166517,-9.792454,3.158258,-1.128941,1.188004,-0.018111,0.000000,0.000000,0.000000
0.267000,0.879925,-8.100913,3.368217,-2.189548,0.608525,-0.240809,0.000000,0.000000,0.000000,-0.169140,-9.763374,3.133406,-1.127918,1.192323,-0.002163,0.000000,0.000000,0.000000
0.267000,0.886568,-8.076794,3.344920,-2.192453,0.609989,-0.239659,0.000000,0.000000,0.000000,-0.171763,-9.734296,3.108555,-1.126895,1.196641,0.013785,0.000000,0.000000,0.000000
0.268000,0.893211,-8.052674,3.321623,-2.195357,0.611453,-0.238509,0.000000,0.000000,0.000000,-0.174386,-9.705216,3.083704,-1.125872,1.200960,0.029734,0.000000,0.000000,0.000000
0.268000,0.899853,-8.028555,3.298327,-2.198261,0.612917,-0.237359,0.000000,0.000000,0.000000,-0.177010,-9.676138,3.058852,-1.124849,1.205279,0.045682,0.000000,0.000000,0.000000
0.269000,0.906496,-8.004436,3.275030,-2.201166,0.614381,-0.236208,0.000000,0.000000,0.000000,-0.179633,-9.647058,3.034001,-1.123827,1.209597,0.061631,0.000000,0.000000,0.000000
0.269000,0.913138,-7.980317,3.251733,-2.204070,0.615844,-0.235058,0.000000,0.000000,0.000000,-0.182256,-9.617980,3.009150,-1.122804,1.213916,0.077579,0.000000,0.000000,0.000000
0.270000,0.919781,-7.956197,3.228437,-2.206975,0.617308,-0.233908,0.000000,0.000000,0.000000,-0.184879,-9.588901,2.984298,-1.121781,1.218234,0.093527,0.000000,0.000000,0.000000
0.270000,0.926424,-7.932078,3.205140,-2.209879,0.618772,-0.232757,0.000000,0.000000,0.000000,-0.187503,-9.559822,2.959447,-1.120758,1.222553,0.109476,0.000000,0.000000,0.000000
0.271000,0.933066,-7.907959,3.181843,-2.212783,0.620236,-0.231607,0.000000,0.000000,0.000000,-0.190126,-9.530743,2.934596,-1.119735,1.226872,0.125424,0.000000,0.000000,0.000000
0.271000,0.939709,-7.883840,3.158547,-2.215688,0.621700,-0.230457,0.000000,0.000000,0.000000,-0.192749,-9.501664,2.909744,-1.118713,1.231190,0.141373,0.000000,0.000000,0.000000
0.272000,0.946351,-7.859720,3.135250,-2.218592,0.623164,-0.229307,0.000000,0.000000,0.000000,-0.195373,-9.472585,2.884893,-1.117690,1.235509,0.157321,0.000000,0.000000,0.000000
0.272000,0.952994,-7.835601,3.111953,-2.221496,0.624628,-0.228156,0.000000,0.000000,0.000000,-0.197996,-9.443506,2.860042,-1.116667,1.239827,0.173269,0.000000,0.000000,0.000000
0.273000,0.958435,-7.811554,3.085762,-2.223286,0.624238,-0.227458,0.000000,0.000000,0.000000,-0.172806,-9.433398,2.892754,-1.112897,1.236455,0.177314,0.000000,0.000000,0.000000
0.273000,0.963876,-7.787507,3.059570,-2.225075,0.623848,-0.226759,0.000000,0.000000,0.000000,-0.147617,-9.423290,2.925466,-1.109126,1.233083,0.181358,0.000000,0.000000,0.000000
0.274000,0.969318,-7.763460,3.033378,-2.226865,0.623458,-0.226060,0.000000,0.000000,0.000000,-0.122427,-9.413182,2.958178,-1.105356,1.229712,0.185402,0.000000,0.000000,0.000000
0.274000,0.974759,-7.739413,3.007186,-2.228655,0.623067,-0.225361,0.000000,0.000000,0.000000,-0.097238,-9.403074,2.990890,-1.101585,1.226339,0.189446,0.000000,0.000000,0.000000
0.275000,0.980200,-7.715366,2.980995,-2.230444,0.622677,-0.224663,0.000000,0.000000,0.000000,-0.072048,-9.392965,3.023602,-1.097815,1.222968,0.193491,0.000000,0.000000,0.000000
0.275000,0.985641,-7.691319,2.954803,-2.232234,0.622287,-0.223964,0.000000,0.000000,0.000000,-0.046858,-9.382857,3.056315,-1.094044,1.219596,0.197535,0.000000,0.000000,0.000000
0.276000,0.991082,-7.667273,2.928611,-2.234024,0.621897,-0.223265,0.000000,0.000000,0.000000,-0.021669,-9.372749,3.089027,-1.090274,1.216224,0.201579,0.000000,0.000000,0.000000
0.276000,0.996524,-7.643226,2.902420,-2.235813,0.621507,-0.222566,0.000000,0.000000,0.000000,0.003521,-9.362641,3.121739,-1.086503,1.212852,0.205623,0.000000,0.000000,0.000000
0.277000,1.001965,-7.619179,2.876228,-2.237603,0.621117,-0.221868,0.000000,0.000000,0.000000,0.028710,-9.352533,3.154451,-1.082733,1.209480,0.209668,0.000000,0.000000,0.000000
0.277000,1.007406,-7.595132,2.850036,-2.239393,0.620727,-0.221169,0.000000,0.000000,0.000000,0.053900,-9.342425,3.187163,-1.078962,1.206108,0.213712,0.000000,0.000000,0.000000
0.278000,1.012847,-7.571085,2.823844,-2.241182,0.620337,-0.220470,0.000000,0.000000,0.000000,0.079089,-9.332317,3.219876,-1.075192,1.202736,0.217756,0.000000,0.000000,0.000000
0.278000,1.018288,-7.547038,2.797653,-2.242972,0.619947,-0.219771,0.000000,0.000000,0.000000,0.104279,-9.322209,3.252588,-1.071421,1.199364,0.221800,0.000000,0.000000,0.000000
0.279000,1.023730,-7.522991,2.771461,-2.244762,0.619556,-0.219073,0.000000,0.000000,0.000000,0.129469,-9.312101,3.285300,-1.067651,1.195992,0.225844,0.000000,0.000000,0.000000
0.279000,1.029925,-7.499368,2.748417,-2.247432,0.616832,-0.218514,0.000000,0.000000,0.000000,0.127369,-9.297837,3.282957,-1.059976,1.193493,0.227445,0.000000,0.000000,0.000000
0.280000,1.036874,-7.476168,2.728521,-2.250983,0.611773,-0.218097,0.000000,0.000000,0.000000,0.097980,-9.279419,3.245558,-1.048395,1.191867,0.226603,0.000000,0.000000,0.000000
0.280000,1.043823,-7.452968,2.708625,-2.254534,0.606714,-0.217679,0.000000,0.000000,0.000000,0.068592,-9.261001,3.208160,-1.036815,1.190242,0.225761,0.000000,0.000000,0.000000
0.281000,1.050772,-7.429768,2.688729,-2.258085,0.601655,-0.217262,0.000000,0.000000,0.000000,0.039203,-9.242582,3.170761,-1.025235,1.188616,0.224918,0.000000,0.000000,0.000000
0.281000,1.057721,-7.406568,2.668833,-2.261636,0.596596,-0.216844,0.000000,0.000000,0.000000,0.009814,-9.224164,3.133363,-1.013655,1.186990,0.224076,0.000000,0.000000,0.000000
0.281000,1.064670,-7.383368,2.648936,-2.265188,0.591537,-0.216426,0.000000,0.000000,0.000000,-0.019574,-9.205746,3.095964,-1.002075,1.185365,0.223234,0.000000,0.000000,0.000000
0.282000,1.071619,-7.360168,2.629040,-2.268739,0.586479,-0.216009,0.000000,0.000000,0.000000,-0.048963,-9.187327,3.058565,-0.990494,1.183739,0.222391,0.000000,0.000000,0.000000
0.282000,1.078568,-7.336968,2.609144,-2.272290,0.581420,-0.215591,0.000000,0.000000,0.000000,-0.078352,-9.168909,3.021167,-0.978914,1.182113,0.221549,0.000000,0.000000,0.000000
0.283000,1.085517,-7.313768,2.589248,-2.275841,0.576361,-0.215173,0.000000,0.000000,0.000000,-0.107741,-9.150491,2.983768,-0.967334,1.180488,0.220707,0.000000,0.000000,0.000000
0.283000,1.092466,-7.290568,2.569352,-2.279392,0.571302,-0.214756,0.000000,0.000000,0.000000,-0.137129,-9.132072,2.946370,-0.955754,1.178862,0.219864,0.000000,0.000000,0.000000
0.284000,1.099415,-7.267368,2.549456,-2.282943,0.566243,-0.214338,0.000000,0.000000,0.000000,-0.166518,-9.113654,2.908971,-0.944174,1.177237,0.219022,0.000000,0.000000,0.000000
0.284000,1.106364,-7.244168,2.529559,-2.286494,0.561184,-0.213920,0.000000,0.000000,0.000000,-0.195907,-9.095236,2.871573,-0.932594,1.175611,0.218180,0.000000,0.000000,0.000000
0.285000,1.113313,-7.220968,2.509663,-2.290045,0.556125,-0.213503,0.000000,0.000000,0.000000,-0.225295,-9.076818,2.834174,-0.921013,1.173985,0.217337,0.000000,0.000000,0.000000
0.285000,1.120262,-7.197768,2.489767,-2.293596,0.551066,-0.213085,0.000000,0.000000,0.000000,-0.254684,-9.058399,2.796776,-0.909433,1.172360,0.216495,0.000000,0.000000,0.000000
0.286000,1.125445,-7.172778,2.478788,-2.296097,0.540376,-0.214622,0.000000,0.000000,0.000000,-0.235666,-9.027820,2.782972,-0.906917,1.176366,0.217968,0.000000,0.000000,0.000000
0.286000,1.130628,-7.147787,2.467809,-2.298598,0.529685,-0.216159,0.000000,0.000000,0.000000,-0.216648,-8.997240,2.769169,-0.904401,1.180372,0.219441,0.000000,0.000000,0.000000
0.287000,1.135811,-7.122797,2.456830,-2.301100,0.518995,-0.217696,0.000000,0.000000,0.000000,-0.197630,-8.966660,2.755366,-0.901885,1.184379,0.220914,0.000000,0.000000,0.000000
0.287000,1.140994,-7.097806,2.445851,-2.303601,0.508304,-0.219233,0.000000,0.000000,0.000000,-0.178613,-8.936081,2.741563,-0.899369,1.188385,0.222387,0.000000,0.000000,0.000000
0.288000,1.146177,-7.072816,2.434872,-2.306102,0.497613,-0.220770,0.000000,0.000000,0.000000,-0.159595,-8.905501,2.727760,-0.896854,1.192391,0.223860,0.000000,0.000000,0.000000
0.288000,1.151360,-7.047826,2.423893,-2.308603,0.486923,-0.222307,0.000000,0.000000,0.000000,-0.140577,-8.874922,2.713957,-0.894338,1.196398,0.225333,0.000000,0.000000,0.000000
0.289000,1.156543,-7.022836,2.412915,-2.311104,0.476232,-0.223844,0.000000,0.000000,0.000000,-0.121559,-8.844342,2.700154,-0.891822,1.200404,0.226806,0.000000,0.000000,0.000000
0.289000,1.161726,-6.997845,2.401936,-2.313605,0.465542,-0.225381,0.000000,0.000000,0.000000,-0.102541,-8.813763,2.686350,-0.889306,1.204410,0.228279,0.000000,0.000000,0.000000
0.290000,1.166909,-6.972855,2.390957,-2.316106,0.454851,-0.226918,0.000000,0.000000,0.000000,-0.083523,-8.783183,2.672547,-0.886790,1.208417,0.229752,0.000000,0.000000,0.000000
0.290000,1.172092,-6.947865,2.379978,-2.318608,0.444161,-0.228455,0.000000,0.000000,0.000000,-0.064505,-8.752604,2.658744,-0.884274,1.212423,0.231225,0.000000,0.000000,0.000000
0.291000,1.177276,-6.922874,2.368999,-2.321109,0.433470,-0.229992,0.000000,0.000000,0.000000,-0.045487,-8.722024,2.644941,-0.881758,1.216429,0.232698,0.000000,0.000000,0.000000
0.291000,1.182459,-6.897884,2.358020,-2.323610,0.422780,-0.231529,0.000000,0.000000,0.000000,-0.026470,-8.691444,2.631138,-0.879242,1.220436,0.234171,0.000000,0.000000,0.000000
0.292000,1.187642,-6.872894,2.347041,-2.326111,0.412089,-0.233066,0.000000,0.000000,0.000000,-0.007452,-8.660865,2.617335,-0.876726,1.224442,0.235644,0.000000,0.000000,0.000000
0.292000,1.194059,-6.849347,2.333808,-2.328487,0.401207,-0.235441,0.000000,0.000000,0.000000,0.004683,-8.643705,2.612784,-0.876312,1.227316,0.235887,0.000000,0.000000,0.000000
0.293000,1.201710,-6.827242,2.318322,-2.330737,0.390135,-0.238653,0.000000,0.000000,0.000000,0.009934,-8.639967,2.617486,-0.878000,1.229057,0.234900,0.000000,0.000000,0.000000
0.293000,1.209361,-6.805138,2.302837,-2.332987,0.379062,-0.241866,0.000000,0.000000,0.000000,0.015186,-8.636229,2.622188,-0.879688,1.230798,0.233912,0.000000,0.000000,0.000000
0.294000,1.217012,-6.783033,2.287351,-2.335237,0.367989,-0.245078,0.000000,0.000000,0.000000,0.020437,-8.632490,2.626889,-0.881376,1.232540,0.232925,0.000000,0.000000,0.000000
0.294000,1.224662,-6.760929,2.271865,-2.337487,0.356917,-0.248290,0.000000,0.000000,0.000000,0.025688,-8.628752,2.631591,-0.883064,1.234281,0.231938,0.000000,0.000000,0.000000
0.295000,1.232313,-6.738825,2.256379,-2.339738,0.345844,-0.251502,0.000000,0.000000,0.000000,0.030940,-8.625013,2.636293,-0.884752,1.236022,0.230951,0.000000,0.000000,0.000000
0.295000,1.239964,-6.716721,2.240893,-2.341988,0.334772,-0.254715,0.000000,0.000000,0.000000,0.036191,-8.621275,2.640995,-0.886440,1.237764,0.229963,0.000000,0.000000,0.000000
0.296000,1.247615,-6.694616,2.225407,-2.344238,0.323699,-0.257927,0.000000,0.000000,0.000000,0.041442,-8.617537,2.645697,-0.888128,1.239505,0.228976,0.000000,0.000000,0.000000
0.296000,1.255266,-6.672512,2.209922,-2.346488,0.312626,-0.261139,0.000000,0.000000,0.000000,0.046694,-8.613798,2.650399,-0.889816,1.241246,0.227989,0.000000,0.000000,0.000000
0.297000,1.262917,-6.650408,2.194436,-2.348739,0.301554,-0.264352,0.000000,0.000000,0.000000,0.051945,-8.610060,2.655100,-0.891504,1.242988,0.227002,0.000000,0.000000,0.000000
0.297000,1.270568,-6.628303,2.178950,-2.350989,0.290481,-0.267564,0.000000,0.000000,0.000000,0.057197,-8.606321,2.659802,-0.893192,1.244729,0.226014,0.000000,0.000000,0.000000
0.298000,1.278219,-6.606199,2.163464,-2.353239,0.279408,-0.270776,0.000000,0.000000,0.000000,0.062448,-8.602583,2.664504,-0.894880,1.246470,0.225027,0.000000,0.000000,0.000000
0.298000,1.285870,-6.584095,2.147978,-2.355489,0.268336,-0.273988,0.000000,0.000000,0.000000,0.067699,-8.598845,2.669206,-0.896568,1.248212,0.224040,0.000000,0.000000,0.000000
0.299000,1.293521,-6.561990,2.132492,-2.357739,0.257263,-0.277201,0.000000,0.000000,0.000000,0.072951,-8.595106,2.673908,-0.898256,1.249953,0.223053,0.000000,0.000000,0.000000
0.299000,1.293409,-6.543336,2.119021,-2.360636,0.250343,-0.281146,0.000000,0.000000,0.000000,0.050536,-8.572610,2.663254,-0.897593,1.252956,0.222338,0.000000,0.000000,0.000000
0.300000,1.293298,-6.524682,2.105550,-2.363533,0.243423,-0.285091,0.000000,0.000000,0.000000,0.028122,-8.550113,2.652601,-0.896929,1.255958,0.221624,0.000000,0.000000,0.000000
0.300000,1.293186,-6.506028,2.092079,-2.366430,0.236504,-0.289037,0.000000,0.000000,0.000000,0.005708,-8.527617,2.641947,-0.896266,1.258961,0.220909,0.000000,0.000000,0.000000
0.301000,1.293075,-6.487374,2.078608,-2.369327,0.229584,-0.292982,0.000000,0.000000,0.000000,-0.016706,-8.505119,2.631294,-0.895602,1.261963,0.220195,0.000000,0.000000,0.000000
0.301000,1.292963,-6.468720,2.065137,-2.372224,0.222664,-0.296927,0.000000,0.000000,0.000000,-0.039120,-8.482623,2.620641,-0.894938,1.264966,0.219480,0.000000,0.000000,0.000000
0.302000,1.292852,-6.450066,2.051666,-2.375121,0.215744,-0.300872,0.000000,0.000000,0.000000,-0.061535,-8.460127,2.609987,-0.894275,1.267969,0.218766,0.000000,0.000000,0.000000
0.302000,1.292740,-6.431412,2.038195,-2.378018,0.208824,-0.304818,0.000000,0.000000,0.000000,-0.083949,-8.437630,2.599334,-0.893611,1.270971,0.218051,0.000000,0.000000,0.000000
0.303000,1.292629,-6.412758,2.024724,-2.380915,0.201905,-0.308763,0.000000,0.000000,0.000000,-0.106363,-8.415133,2.588680,-0.892948,1.273974,0.217337,0.000000,0.000000,0.000000
0.303000,1.292517,-6.394104,2.011253,-2.383812,0.194985,-0.312708,0.000000,0.000000,0.000000,-0.128777,-8.392636,2.578027,-0.892284,1.276977,0.216622,0.000000,0.000000,0.000000
0.304000,1.292405,-6.375450,1.997782,-2.386709,0.188065,-0.316653,0.000000,0.000000,0.000000,-0.151191,-8.370140,2.567373,-0.891620,1.279979,0.215908,0.000000,0.000000,0.000000
0.304000,1.292294,-6.356796,1.984311,-2.389606,0.181145,-0.320599,0.000000,0.000000,0.000000,-0.173606,-8.347644,2.556720,-0.890957,1.282982,0.215193,0.000000,0.000000,0.000000
0.305000,1.292182,-6.338142,1.970840,-2.392503,0.174226,-0.324544,0.000000,0.000000,0.000000,-0.196020,-8.325147,2.546066,-0.890293,1.285984,0.214479,0.000000,0.000000,0.000000
0.305000,1.292071,-6.319488,1.957369,-2.395400,0.167306,-0.328489,0.000000,0.000000,0.000000,-0.218434,-8.302650,2.535413,-0.889630,1.288987,0.213765,0.000000,0.000000,0.000000
0.306000,1.286122,-6.301801,1.946112,-2.398698,0.162757,-0.331818,0.000000,0.000000,0.000000,-0.225721,-8.269761,2.542225,-0.891398,1.291995,0.211276,0.000000,0.000000,0.000000
0.306000,1.274337,-6.285082,1.937068,-2.402398,0.160580,-0.334531,0.000000,0.000000,0.000000,-0.217881,-8.226479,2.566504,-0.895600,1.295009,0.207014,0.000000,0.000000,0.000000
0.307000,1.262552,-6.268363,1.928024,-2.406098,0.158403,-0.337244,0.000000,0.000000,0.000000,-0.210042,-8.183196,2.590782,-0.899801,1.298022,0.202752,0.000000,0.000000,0.000000
0.307000,1.250767,-6.251644,1.918980,-2.409797,0.156226,-0.339957,0.000000,0.000000,0.000000,-0.202202,-8.139914,2.615060,-0.904003,1.301036,0.198491,0.000000,0.000000,0.000000
0.308000,1.238982,-6.234924,1.909936,-2.413497,0.154049,-0.342670,0.000000,0.000000,0.000000,-0.194362,-8.096632,2.639338,-0.908204,1.304049,0.194229,0.000000,0.000000,0.000000
0.308000,1.227197,-6.218205,1.900892,-2.417197,0.151872,-0.345383,0.000000,0.000000,0.000000,-0.186522,-8.053349,2.663617,-0.912405,1.307063,0.189967,0.000000,0.000000,0.000000
0.309000,1.215412,-6.201486,1.891848,-2.420897,0.149695,-0.348095,0.000000,0.000000,0.000000,-0.178682,-8.010067,2.687895,-0.916607,1.310076,0.185705,0.000000,0.000000,0.000000
0.309000,1.203627,-6.184767,1.882804,-2.424596,0.147517,-0.350808,0.000000,0.000000,0.000000,-0.170842,-7.966784,2.712174,-0.920808,1.313090,0.181443,0.000000,0.000000,0.000000
0.310000,1.191842,-6.168048,1.873760,-2.428296,0.145340,-0.353521,0.000000,0.000000,0.000000,-0.163003,-7.923502,2.736452,-0.925009,1.316103,0.177181,0.000000,0.000000,0.000000
0.310000,1.180057,-6.151329,1.864716,-2.431996,0.143163,-0.356234,0.000000,0.000000,0.000000,-0.155163,-7.880220,2.760730,-0.929211,1.319117,0.172919,0.000000,0.000000,0.000000
0.311000,1.168272,-6.134610,1.855672,-2.435696,0.140986,-0.358947,0.000000,0.000000,0.000000,-0.147323,-7.836938,2.785009,-0.933412,1.322130,0.168657,0.000000,0.000000,0.000000
0.311000,1.156487,-6.117890,1.846628,-2.439395,0.138809,-0.361660,0.000000,0.000000,0.000000,-0.139483,-7.793655,2.809287,-0.937613,1.325144,0.164395,0.000000,0.000000,0.000000
0.312000,1.144702,-6.101171,1.837584,-2.443095,0.136632,-0.364373,0.000000,0.000000,0.000000,-0.131643,-7.750373,2.833565,-0.941815,1.328157,0.160133,0.000000,0.000000,0.000000
0.312000,1.132917,-6.084452,1.828540,-2.446795,0.134455,-0.367085,0.000000,0.000000,0.000000,-0.123803,-7.707091,2.857844,-0.946016,1.331171,0.155871,0.000000,0.000000,0.000000
0.313000,1.115303,-6.066879,1.812900,-2.450324,0.134795,-0.366781,0.000000,0.000000,0.000000,-0.155032,-7.673395,2.828568,-0.935030,1.318688,0.148690,0.000000,0.000000,0.000000
0.314000,1.097689,-6.049305,1.797260,-2.453854,0.135136,-0.366477,0.000000,0.000000,0.000000,-0.186260,-7.639699,2.799294,-0.924045,1.306205,0.141508,0.000000,0.000000,0.000000
0.314000,1.080075,-6.031732,1.781620,-2.457384,0.135476,-0.366173,0.000000,0.000000,0.000000,-0.217488,-7.606002,2.770018,-0.913060,1.293722,0.134327,0.000000,0.000000,0.000000
0.315000,1.062461,-6.014159,1.765980,-2.460913,0.135817,-0.365868,0.000000,0.000000,0.000000,-0.248717,-7.572306,2.740743,-0.902074,1.281239,0.127145,0.000000,0.000000,0.000000
0.315000,1.044847,-5.996586,1.750340,-2.464443,0.136157,-0.365564,0.000000,0.000000,0.000000,-0.279945,-7.538610,2.711468,-0.891089,1.268756,0.119964,0.000000,0.000000,0.000000
0.316000,1.027233,-5.979012,1.734700,-2.467973,0.136498,-0.365260,0.000000,0.000000,0.000000,-0.311173,-7.504914,2.682193,-0.880103,1.256273,0.112783,0.000000,0.000000,0.000000
0.316000,1.009619,-5.961439,1.719060,-2.471502,0.136838,-0.364956,0.000000,0.000000,0.000000,-0.342401,-7.471218,2.652918,-0.869118,1.243790,0.105601,0.000000,0.000000,0.000000
0.317000,0.992005,-5.943866,1.703420,-2.475032,0.137179,-0.364652,0.000000,0.000000,0.000000,-0.373630,-7.437521,2.623643,-0.858132,1.231307,0.098420,0.000000,0.000000,0.000000
0.317000,0.974391,-5.926292,1.687780,-2.478562,0.137519,-0.364347,0.000000,0.000000,0.000000,-0.404858,-7.403825,2.594368,-0.847147,1.218824,0.091238,0.000000,0.000000,0.000000
0.318000,0.956776,-5.908719,1.672141,-2.482091,0.137860,-0.364043,0.000000,0.000000,0.000000,-0.436086,-7.370129,2.565093,-0.836161,1.206341,0.084057,0.000000,0.000000,0.000000
0.318000,0.939162,-5.891146,1.656501,-2.485621,0.138200,-0.363739,0.000000,0.000000,0.000000,-0.467315,-7.336433,2.535818,-0.825176,1.193859,0.076876,0.000000,0.000000,0.000000
0.319000,0.921548,-5.873573,1.640861,-2.489151,0.138541,-0.363435,0.000000,0.000000,0.000000,-0.498543,-7.302737,2.506543,-0.814190,1.181376,0.069694,0.000000,0.000000,0.000000
0.319000,0.903934,-5.855999,1.625221,-2.492680,0.138881,-0.363130,0.000000,0.000000,0.000000,-0.529771,-7.269041,2.477268,-0.803205,1.168893,0.062513,0.000000,0.000000,0.000000
0.320000,0.887569,-5.837502,1.614462,-2.495447,0.138787,-0.361232,0.000000,0.000000,0.000000,-0.564219,-7.236045,2.435157,-0.797526,1.160027,0.058094,0.000000,0.000000,0.000000
0.320000,0.872453,-5.818081,1.608585,-2.497450,0.138259,-0.357741,0.000000,0.000000,0.000000,-0.601887,-7.203749,2.380209,-0.797153,1.154780,0.056438,0.000000,0.000000,0.000000
0.321000,0.857337,-5.798661,1.602707,-2.499453,0.137731,-0.354249,0.000000,0.000000,0.000000,-0.639555,-7.171454,2.325263,-0.796780,1.149532,0.054782,0.000000,0.000000,0.000000
0.321000,0.842221,-5.779240,1.596830,-2.501457,0.137202,-0.350757,0.000000,0.000000,0.000000,-0.677222,-7.139158,2.270315,-0.796407,1.144284,0.053127,0.000000,0.000000,0.000000
0.322000,0.827104,-5.759819,1.590952,-2.503460,0.136674,-0.347266,0.000000,0.000000,0.000000,-0.714890,-7.106863,2.215369,-0.796034,1.139037,0.051471,0.000000,0.000000,0.000000
0.322000,0.811988,-5.740398,1.585075,-2.505463,0.136146,-0.343774,0.000000,0.000000,0.000000,-0.752558,-7.074567,2.160421,-0.795661,1.133789,0.049815,0.000000,0.000000,0.000000
0.323000,0.796872,-5.720978,1.579198,-2.507467,0.135617,-0.340282,0.000000,0.000000,0.000000,-0.790225,-7.042272,2.105474,-0.795288,1.128541,0.048159,0.000000,0.000000,0.000000
0.323000,0.781756,-5.701557,1.573320,-2.509470,0.135089,-0.336791,0.000000,0.000000,0.000000,-0.827893,-7.009976,2.050527,-0.794915,1.123294,0.046503,0.000000,0.000000,0.000000
0.324000,0.766640,-5.682136,1.567443,-2.511473,0.134561,-0.333299,0.000000,0.000000,0.000000,-0.865561,-6.977681,1.995580,-0.794542,1.118046,0.044847,0.000000,0.000000,0.000000
0.324000,0.751524,-5.662715,1.561565,-2.513477,0.134032,-0.329807,0.000000,0.000000,0.000000,-0.903228,-6.945385,1.940633,-0.794169,1.112798,0.043192,0.000000,0.000000,0.000000
0.325000,0.736407,-5.643294,1.555688,-2.515480,0.133504,-0.326315,0.000000,0.000000,0.000000,-0.940896,-6.913090,1.885686,-0.793796,1.107551,0.041536,0.000000,0.000000,0.000000
0.325000,0.721291,-5.623874,1.549810,-2.517483,0.132976,-0.322824,0.000000,0.000000,0.000000,-0.978563,-6.880794,1.830739,-0.793423,1.102303,0.039880,0.000000,0.000000,0.000000
0.326000,0.706175,-5.604453,1.543933,-2.519487,0.132447,-0.319332,0.000000,0.000000,0.000000,-1.016231,-6.848499,1.775792,-0.793050,1.097055,0.038224,0.000000,0.000000,0.000000
0.326000,0.691059,-5.585032,1.538055,-2.521490,0.131919,-0.315840,0.000000,0.000000,0.000000,-1.053899,-6.816203,1.720845,-0.792677,1.091808,0.036568,0.000000,0.000000,0.000000
0.327000,0.686957,-5.575457,1.538950,-2.520643,0.129608,-0.310872,0.000000,0.000000,0.000000,-1.042736,-6.801003,1.749735,-0.808773,1.101281,0.037689,0.000000,0.000000,0.000000
0.327000,0.682854,-5.565882,1.539846,-2.519795,0.127297,-0.305904,0.000000,0.000000,0.000000,-1.031573,-6.785803,1.778626,-0.824869,1.110755,0.038809,0.000000,0.000000,0.000000
0.328000,0.678752,-5.556307,1.540741,-2.518948,0.124985,-0.300936,0.000000,0.000000,0.000000,-1.020410,-6.770602,1.807516,-0.840965,1.120229,0.039930,0.000000,0.000000,0.000000
0.328000,0.674650,-5.546732,1.541636,-2.518101,0.122674,-0.295968,0.000000,0.000000,0.000000,-1.009247,-6.755402,1.836406,-0.857061,1.129702,0.041050,0.000000,0.000000,0.000000
0.329000,0.670547,-5.537157,1.542531,-2.517253,0.120363,-0.291000,0.000000,0.000000,0.000000,-0.998084,-6.740202,1.865296,-0.873157,1.139176,0.042171,0.000000,0.000000,0.000000
0.329000,0.666445,-5.527582,1.543426,-2.516406,0.118051,-0.286032,0.000000,0.000000,0.000000,-0.986922,-6.725002,1.894186,-0.889253,1.148650,0.043291,0.000000,0.000000,0.000000
0.330000,0.662343,-5.518006,1.544321,-2.515559,0.115740,-0.281064,0.000000,0.000000,0.000000,-0.975759,-6.709802,1.923077,-0.905349,1.158123,0.044412,0.000000,0.000000,0.000000
0.330000,0.658241,-5.508431,1.545216,-2.514711,0.113429,-0.276096,0.000000,0.000000,0.000000,-0.964596,-6.694602,1.951967,-0.921445,1.167597,0.045532,0.000000,0.000000,0.000000
0.331000,0.654138,-5.498857,1.546111,-2.513864,0.111118,-0.271128,0.000000,0.000000,0.000000,-0.953433,-6.679401,1.980857,-0.937541,1.177071,0.046653,0.000000,0.000000,0.000000
0.331000,0.650036,-5.489281,1.547006,-2.513017,0.108806,-0.266160,0.000000,0.000000,0.000000,-0.942270,-6.664201,2.009748,-0.953637,1.186545,0.047773,0.000000,0.000000,0.000000
0.332000,0.645934,-5.479706,1.547901,-2.512169,0.106495,-0.261192,0.000000,0.000000,0.000000,-0.931107,-6.649001,2.038638,-0.969733,1.196018,0.048894,0.000000,0.000000,0.000000
0.332000,0.641831,-5.470131,1.548796,-2.511322,0.104184,-0.256224,0.000000,0.000000,0.000000,-0.919944,-6.633801,2.067528,-0.985829,1.205492,0.050014,0.000000,0.000000,0.000000
0.333000,0.637729,-5.460556,1.549691,-2.510475,0.101872,-0.251256,0.000000,0.000000,0.000000,-0.908781,-6.618600,2.096418,-1.001925,1.214966,0.051135,0.000000,0.000000,0.000000
0.333000,0.629970,-5.443576,1.549176,-2.509269,0.100004,-0.245831,0.000000,0.000000,0.000000,-0.890602,-6.588933,2.128747,-1.010220,1.218073,0.049045,0.000000,0.000000,0.000000
0.334000,0.618555,-5.419191,1.547250,-2.507705,0.098577,-0.239948,0.000000,0.000000,0.000000,-0.865406,-6.544798,2.164515,-1.010716,1.214814,0.043743,0.000000,0.000000,0.000000
0.334000,0.607140,-5.394806,1.545324,-2.506140,0.097151,-0.234066,0.000000,0.000000,0.000000,-0.840210,-6.500664,2.200284,-1.011212,1.211555,0.038442,0.000000,0.000000,0.000000
0.335000,0.595725,-5.370422,1.543399,-2.504576,0.095724,-0.228184,0.000000,0.000000,0.000000,-0.815013,-6.456529,2.236052,-1.011707,1.208296,0.033141,0.000000,0.000000,0.000000
0.335000,0.584309,-5.346037,1.541473,-2.503012,0.094298,-0.222302,0.000000,0.000000,0.000000,-0.789817,-6.412395,2.271820,-1.012203,1.205037,0.027840,0.000000,0.000000,0.000000
0.336000,0.572894,-5.321652,1.539547,-2.501448,0.092872,-0.216420,0.000000,0.000000,0.000000,-0.764621,-6.368260,2.307588,-1.012699,1.201778,0.022539,0.000000,0.000000,0.000000
0.336000,0.561479,-5.297267,1.537621,-2.499884,0.091445,-0.210537,0.000000,0.000000,0.000000,-0.739425,-6.324126,2.343356,-1.013194,1.198519,0.017238,0.000000,0.000000,0.000000
0.337000,0.550064,-5.272882,1.535695,-2.498319,0.090019,-0.204655,0.000000,0.000000,0.000000,-0.714229,-6.279991,2.379124,-1.013690,1.195260,0.011937,0.000000,0.000000,0.000000
0.337000,0.538649,-5.248497,1.533770,-2.496755,0.088593,-0.198773,0.000000,0.000000,0.000000,-0.689033,-6.235857,2.414892,-1.014185,1.192001,0.006636,0.000000,0.000000,0.000000
0.338000,0.527233,-5.224113,1.531844,-2.495191,0.087166,-0.192891,0.000000,0.000000,0.000000,-0.663837,-6.191722,2.450660,-1.014681,1.188742,0.001335,0.000000,0.000000,0.000000
0.338000,0.515818,-5.199728,1.529918,-2.493627,0.085740,-0.187009,0.000000,0.000000,0.000000,-0.638640,-6.147587,2.486429,-1.015177,1.185483,-0.003966,0.000000,0.000000,0.000000
