Time,Gyro_X,Gyro_Y,Gyro_Z,Acc_X,Acc_Y,Acc_Z,Euler_X,Euler_Y,Euler_Z,Tilt_X,Tilt_Y,Tilt_Z,Quat_W,Quat_X,Quat_Y,Quat_Z
0.0,53.36818692036229,0.02903800401856435,35.405326582349275,0.038773253902132966,0.9567224977247692,0.7921938518723836,0.24719376862049103,-0.008960330858826637,-2.2959123491261835e-09,1.7879136418596238,50.340587104692,50.39735484015159,0.9999977350234985,0.0021571707911789417,-7.819345046300441e-05,1.686569675030114e-07
0.0005,53.365315886378944,0.028817819724138726,35.40449528338624,0.03877341883283299,0.9567186690452375,0.7921874474529925,0.4935590922832489,-0.017966914921998978,2.444824898084619e-10,1.7879313597034454,50.34070120497571,50.39747010828581,0.999990701675415,0.004307102411985397,-0.00015678946510888636,6.753166985618009e-07
0.001,53.35608590431444,0.028933042255968697,35.40400482654912,0.03879488859942713,0.9567099489168016,0.7921775977387753,0.7390913963317871,-0.02702384442090988,-2.4531969788910146e-09,1.7889394451869147,50.34075653794941,50.39758948715995,0.9999791979789734,0.006449744571000338,-0.00023582261928822845,1.5210058563752682e-06
0.0015,53.340501233189315,0.029382803079350556,35.40385201107909,0.038837620189133365,0.9566963368171004,0.7921642956500846,0.9837864637374878,-0.036135174334049225,-1.760737333711404e-09,1.790935965573083,50.34075334981519,50.39771320644592,0.9999631643295288,0.008585049770772457,-0.00031532725552096963,2.7071846488979645e-06
0.002,53.31856826464995,0.03016630243815034,35.404033194103,0.03890156459916342,0.9566778341294356,0.7921475381703463,1.2276395559310913,-0.04530493542551994,-2.0119843568977558e-09,1.7939187314572242,50.34069174647412,50.39784144258252,0.9999426007270813,0.010712970048189163,-0.00039533746894448996,4.235464075463824e-06
0.0025,53.290295519385765,0.031282808629503264,35.40454429082762,0.0389866667981273,0.9566544441353346,0.7921273263220608,1.4706463813781738,-0.05453714355826378,-1.728523435495788e-09,1.7978852948771937,50.34057169473895,50.397974319008284,0.9999175667762756,0.012833457440137863,-0.00047588718007318676,6.107766239438206e-06
0.003,53.25569364164937,0.03273165707509686,35.40538077533081,0.03909286568875974,0.9566261720051109,0.7921036651365568,1.7128028869628906,-0.06383576989173889,-3.3581956659922696e-10,1.8028329474218958,50.34039302378734,50.39811190649862,0.9998881220817566,0.014946467243134975,-0.0005570100038312376,8.326260285684839e-06
0.0035,53.214775391887464,0.034512249193390486,35.40653768194919,0.03922009407204272,0.9565930247864255,0.7920765636175499,1.954105257987976,-0.07320479303598404,-2.7466788843355516e-09,1.8087587183420613,50.340155426854615,50.39825422360501,0.9998544454574585,0.017051953822374344,-0.0006387393805198371,1.0893316357396543e-05
0.004,53.167555637490445,0.036624051077608806,35.40800960726023,0.03936827861280131,0.9565550113908627,0.7920460346985964,2.1945478916168213,-0.08264807611703873,2.0651621038259016e-11,1.8156593726678885,50.3398584631629,50.39840123719378,0.999816358089447,0.019149869680404663,-0.0007211082265712321,1.381166475766804e-05
0.0045000000000000005,53.11405134167281,0.03906659198481966,35.409790712656296,0.03953733980685567,0.9565121425785394,0.7920120951945346,2.434128761291504,-0.09216954559087753,-2.436393753413313e-09,1.8235314093385189,50.33950156008451,50.39855286308175,0.9997740983963013,0.021240176633000374,-0.0008041494875214994,1.708411582512781e-05
0.005,53.05428155049776,0.041839462641868955,35.41187472750589,0.039727191949816075,0.956464430940776,0.7919747657470134,2.672842502593994,-0.10177303105592728,-1.871854060642164e-10,1.8323710593486868,50.339084015536876,50.39870896676626,0.9997276067733765,0.023322828114032745,-0.0008878955850377679,2.0713876438094303e-05
0.0055,52.988267378062204,0.04494231337439023,35.41425495289791,0.03993774310761276,0.9564118908808271,0.791934070764225,2.9106862545013428,-0.11146235466003418,-1.6102000843787323e-09,1.842174283918348,50.33860500060479,50.398869364245684,0.9996770024299622,0.025397785007953644,-0.0009723786497488618,2.470422987244092e-05
0.006,52.91603198986099,0.04837485206554018,35.41692426596176,0.04016889508885669,0.9563545385927225,0.7918900383549663,3.1476550102233887,-0.12124130874872208,-6.32752406026782e-10,1.852936772691387,50.33806356238714,50.399033822928,0.9996222257614136,0.027465002611279488,-0.0010576306376606226,2.9058799555059522e-05
0.006500000000000001,52.837600584350774,0.052136841951528394,35.419875124756885,0.04042054341913164,0.95629239203823,0.7918427002571647,3.3837456703186035,-0.13111360371112823,-8.108225896252819e-11,1.864653941969934,50.33745862706363,50.39920206262331,0.9995633959770203,0.029524443671107292,-0.0011436829809099436,3.378135079401545e-05
0.007,52.75300037273673,0.05622809926140897,35.423099573722936,0.04069257731732179,0.9562254709219683,0.7917920917610115,3.618954658508301,-0.14108291268348694,4.422049115770932e-10,1.8773209329911515,50.336789003176946,50.3993737566168,0.999500572681427,0.031576067209243774,-0.0012305665295571089,3.887587081408128e-05
0.0075,52.66226055700782,0.06064849070898283,35.42658924968157,0.040984879674083145,0.9561537966647106,0.7917382516268582,3.8532791137695312,-0.15115296840667725,-1.6667772717582352e-09,1.8909326102536876,50.33605338512593,50.3995485328185,0.9994338750839233,0.03361983969807625,-0.0013183124829083681,4.434654692886397e-05
0.008,52.56541230624748,0.06539793084501987,35.43033538837936,0.041297327032571,0.9560773923749024,0.7916812219980429,4.086714744567871,-0.16132736206054688,-4.223826177707224e-09,1.9054835599013422,50.33525035686415,50.39972597498538,0.9993632435798645,0.03565572202205658,-0.0014069511089473963,5.019778473069891e-05
0.0085,52.46248873125011,0.07047637927835006,35.43432883156056,0.04162978957153781,0.9559962828184363,0.7916210483088102,4.319257736206055,-0.17160961031913757,-9.962923819273328e-10,1.9209680881717468,50.33437839579887,50.39990562401226,0.9992886781692505,0.03768366575241089,-0.0014965120935812593,5.6434197176713496e-05
0.009000000000000001,52.353524857474646,0.0758838377746924,35.43856003455786,0.041982131090920805,0.9559104943867139,0.7915577791875227,4.550904750823975,-0.18200324475765228,-1.0991330068321759e-09,1.937380219918208,50.333435876883655,50.40008697928633,0.9992102980613708,0.039703644812107086,-0.0015870248898863792,6.306046270765364e-05
0.0095,52.23855759636929,0.08162034724238879,35.44301907438708,0.04235420900003971,0.9558200550630451,0.7914914663553348,4.781652927398682,-0.19251179695129395,-3.254759128878959e-09,1.9547136972130683,50.332421076899415,50.40026950010184,0.9991282224655151,0.041715625673532486,-0.0016785190673545003,7.008154352661222e-05
0.01,52.117625715103024,0.08768598461448979,35.44769565833285,0.042745874308528255,0.9557249943874169,0.7914221645205419,5.011499881744385,-0.20313864946365356,-2.7682924841343493e-09,1.972961978041202,50.33133217891639,50.4004526071298,0.9990423917770386,0.0437195748090744,-0.0017710230313241482,7.750256918370724e-05
0.0105,51.99076980474205,0.0940808596368934,35.45257913300923,0.04315697162012508,0.9556253434196831,0.791349931268801,5.2404398918151855,-0.21388715505599976,-1.6371004551984925e-09,1.9921182350924764,50.33016727693055,50.40063568393817,0.9989528059959412,0.04571544751524925,-0.001864564954303205,8.532876381650567e-05
0.011,51.858032246910156,0.1008051115724703,35.45765849387992,0.04358733912945142,0.955521134701212,0.791274826949443,5.468472957611084,-0.22476069629192352,-2.249670449927521e-09,2.012175354662194,50.32892438066668,50.40081807855775,0.998859703540802,0.047703225165605545,-0.0019591727759689093,9.356553346151486e-05
0.0115,51.719457178974864,0.10785890583130028,35.46292239522135,0.04403680862190414,0.9554124022150534,0.7911969145580853,5.695594310760498,-0.23576247692108154,1.2237376390000776e-10,2.0331259356686857,50.327601420541114,50.40099910508935,0.9987629652023315,0.049682870507240295,-0.0020548736210912466,0.0001022184660541825
0.012,51.57509045780223,0.11524243053731378,35.468359160511135,0.044505205476794034,0.9552991813446599,0.7911162596157828,5.921802043914795,-0.24689574539661407,3.987900676349909e-09,2.0549622887973746,50.326196252775155,50.401178045346825,0.9986627101898193,0.051654353737831116,-0.0021516939159482718,0.00011129322228953242
0.0125,51.42497962212544,0.12295589304176514,35.47395679322347,0.044992348673860615,0.955181508831226,0.7910329300449357,6.147093296051025,-0.2581637501716614,-4.596033831294477e-10,2.077676435780761,50.32470666465177,50.401354150531596,0.9985590577125549,0.05361764878034592,-0.002249660901725292,0.0001207955865538679
0.013000000000000001,51.26917385357297,0.1309995163940772,35.47970298801323,0.0454980508032936,0.9550594227296875,0.7909469960421995,6.371463298797607,-0.26956939697265625,1.1716855263799175e-10,2.101260108823817,50.32313037990596,50.401526642933234,0.9984518885612488,0.055572714656591415,-0.002348799491301179,0.00013073155423626304
0.0135,51.10772393640493,0.1393735357806758,35.48558514226846,0.04602211807939318,0.9549329623634506,0.7908585299486335,6.594913959503174,-0.28111591935157776,-2.8820881237123785e-09,2.1257047501843807,50.32146506424058,50.40169471765183,0.99834144115448,0.057519540190696716,-0.002449135296046734,0.00014110714255366474
0.014,50.94068221600652,0.14807819494248378,35.49159036801174,0.04656435035799875,0.9548021682778874,0.7907676061173298,6.817436695098877,-0.2928061783313751,1.1339257310893913e-09,2.151001511918139,50.31970833095764,50.40185754433651,0.9982275366783142,0.05945808067917824,-0.0025506927631795406,0.00015192858700174838
0.0145,50.76810255618917,0.15711374258177083,35.49770550412955,0.04712454115781657,0.9546670821926782,0.7906743007787767,7.039034366607666,-0.3046431839466095,1.6404603231379156e-09,2.177141255797769,50.31785774669596,50.402014268935986,0.9981104135513306,0.061388321220874786,-0.0026534961070865393,0.000163202072144486
0.015,50.590040295351905,0.16648042876904057,35.50391712890821,0.047702477685774416,0.9545277469530401,0.7905786919042075,7.259700775146484,-0.31662967801094055,1.515998437895405e-09,2.2041145534157955,50.315910837264724,50.40216401545542,0.997990071773529,0.06331023573875427,-0.002757568843662739,0.00017493395716883242
0.0155,50.40655220155573,0.17617850136061006,35.51021157285523,0.04829794086653051,0.9543842064799197,0.7904808590671781,7.479437351226807,-0.32876867055892944,-3.517186764057101e-09,2.2319116864806494,50.31386509356349,50.40230588771588,0.9978666305541992,0.0652237981557846,-0.002862934721633792,0.00018713065946940333
0.016,50.2176964265651,0.18620820243745473,35.51657493178327,0.0489107053762606,0.9542365057191988,0.7903808833036451,7.698237419128418,-0.34106263518333435,-1.9586543498206765e-09,2.2605226473152493,50.31171797757731,50.40243897111059,0.9977399110794067,0.0671289786696434,-0.002969615161418915,0.0001997987856157124
0.0165,50.02353245891241,0.19656976477579838,35.52299308013491,0.049540539680845694,0.9540846905899861,0.7902788469707903,7.916102409362793,-0.3535144329071045,-3.104913659512931e-09,2.2899371395673747,50.30946692843688,50.402562334354045,0.9976102113723755,0.06902576237916946,-0.0030776322819292545,0.00021294478210620582
0.017,49.82412107604142,0.2072634083597832,35.529451684525014,0.05018720607857865,0.9539288079320545,0.7901748336048512,8.133028030395508,-0.36612647771835327,-1.6223533627623965e-09,2.320144579140837,50.307109368532686,50.40267503121936,0.9974773526191711,0.0709141194820404,-0.00318700703792274,0.00022657535737380385
0.0175,49.61952429558653,0.21828933694638622,35.53593621747803,0.05085046074750465,0.9537689054524926,0.7900689277782191,8.349013328552246,-0.37890148162841797,-1.5616318238542704e-09,2.351134095356288,50.304642709671775,50.40277610225914,0.9973415732383728,0.07279404252767563,-0.0032977608498185873,0.00024069720529951155
0.018000000000000002,49.40980532584622,0.22964773469255878,35.542431971336306,0.05153005379750588,0.9536050316716413,0.7899612149560628,8.564055442810059,-0.3918417692184448,1.1008692846203871e-09,2.3828945323502086,50.30206435926608,50.402864576506055,0.9972028136253357,0.07466549426317215,-0.0034099130425602198,0.00025531701976433396
0.0185,49.19502851550903,0.24133876285435593,35.5489240723171,0.052225729327237486,0.9534372358683748,0.7898517813527312,8.778153419494629,-0.40494978427886963,5.661417445956829e-10,2.4154144507204403,50.29937172654057,50.40293947314855,0.9970611333847046,0.07652845978736877,-0.0035234829410910606,0.0002704415237531066
0.019,48.97525930269112,0.2533625565675832,35.55539749469347,0.05293722548601581,0.9532655680248002,0.789740713788196,8.991304397583008,-0.418227881193161,-1.113855896406335e-09,2.4486821294262118,50.296562228749586,50.402999803177934,0.9969167113304138,0.07838292419910431,-0.0036384896375238895,0.00028607749845832586
0.0195,48.75056416334517,0.26571922171922885,35.561837075076156,0.05366427454075557,0.9530900787704533,0.7896280995447862,9.203507423400879,-0.4316781163215637,5.653554291384921e-10,2.482685567950347,50.293633297389825,50.403044571003136,0.996769368648529,0.08022886514663696,-0.003754950128495693,0.0003022317832801491
0.02,48.52101055910073,0.2784088319186446,35.56822752677263,0.0544066029480475,0.9529108193260429,0.7895140262244651,9.414761543273926,-0.44530290365219116,-7.910683219591874e-10,2.517412488731012,50.290582384397595,50.40307277602924,0.9966193437576294,0.08206627517938614,-0.003872883040457964,0.00031891121761873364
0.0205,48.28666688459638,0.2914314255771294,35.57455345419911,0.05516393143146006,0.9527278414468288,0.7893985816069069,9.625062942504883,-0.459104061126709,1.7351713399449409e-09,2.552850339869834,50.287406968318386,50.40308341419625,0.9964665174484253,0.08389512449502945,-0.003992303740233183,0.000336122524458915
0.021,48.04760241436412,0.304787003104212,35.580799367322356,0.055935975064145285,0.9525411973657087,0.7892818535086081,9.8344144821167,-0.47308385372161865,4.172027723292615e-10,2.5889862981229466,50.28410456043726,50.40307547947561,0.9963111281394958,0.0857154130935669,-0.0041132294572889805,0.0003538725432008505
0.021500000000000002,47.80388724932715,0.3184755242285702,35.58694969610749,0.05672244335681901,0.9523509397360629,0.7891639296432837,10.04280948638916,-0.48724400997161865,-5.389821366996728e-10,2.6258072721809813,50.28067271085683,50.40304796532014,0.9961530566215515,0.08752711117267609,-0.004235674627125263,0.00037216805503703654
0.022,47.55559226297122,0.33249690545111443,35.592988804948305,0.05752304035118142,0.9521571215744586,0.7890448974837837,10.250250816345215,-0.5015864372253418,-2.0630264163656875e-09,2.663299906243546,50.27710901451187,50.40299986606587,0.9959924221038818,0.08933021128177643,-0.004359654150903225,0.00039101584115996957
0.0225,47.302789047251075,0.3468510176373636,35.59890100705653,0.05833746471883409,0.951959796203263,0.7889248441257624,10.456733703613281,-0.5161131024360657,-5.510335743252881e-09,2.7014505838932665,50.27341111710738,50.40293017828228,0.9958293437957764,0.09112470597028732,-0.004485182464122772,0.0004104226245544851
0.023,47.045549858291885,0.36153768375578044,35.60467057878778,0.05916540986574271,0.9517590171932496,0.7888038561533312,10.662257194519043,-0.5308253765106201,2.7031643590191834e-09,2.7402454322738543,50.26957672096866,50.402837902068924,0.9956636428833008,0.09291055798530579,-0.004612271673977375,0.00043039509910158813
0.0235,46.78394756194644,0.3765566767682892,35.610281773880466,0.060006564042286374,0.9515548383062684,0.788682019506915,10.86682415008545,-0.5457251071929932,1.0408276462925414e-09,2.7796703265761646,50.26560359079109,50.4027220422963,0.995495617389679,0.09468778967857361,-0.004740934353321791,0.0004509398131631315
0.024,46.51805557926802,0.3919077176787022,35.61571883758611,0.06086061045892528,0.9513473134380427,0.7885594193535259,11.070430755615234,-0.5608136653900146,-6.251679035562674e-11,2.8197108948356018,50.2614895592776,50.402581609788925,0.9953252077102661,0.0964563712477684,-0.0048711830750107765,0.0004720634315162897
0.0245,46.24794783195873,0.4075904737442901,35.62096602066866,0.061727227407509314,0.95113649656118,0.7884361399596713,11.273076057434082,-0.576092541217804,-5.413616221972006e-09,2.860352523043545,50.25723253265225,50.402415622449105,0.9951524138450623,0.09821630269289017,-0.005003027617931366,0.0004937724443152547
0.025,45.973698687852256,0.42360455685521436,35.62600759325113,0.06260608838824179,0.9509224416684545,0.788312264567092,11.474757194519043,-0.5915631055831909,-1.104366287307812e-08,2.9015803605749624,50.252830496037966,50.402223106319916,0.9949772953987122,0.09996756166219711,-0.005136478692293167,0.0005160732544027269
0.025500000000000002,45.695382906489684,0.43994952208601656,35.63082785848856,0.06349686224230147,0.9507052027164389,0.7881878752715293,11.675477981567383,-0.6072266101837158,-3.5910507900638322e-09,2.943379325933585,50.2482815186871,50.40200309658613,0.9947999715805054,0.10171015560626984,-0.005271546076983213,0.0005389724392443895
0.026000000000000002,45.41307558484679,0.456624866422825,35.63541116604689,0.06439921329011958,0.950484833569551,0.7880630529047101,11.875235557556152,-0.6230841875076294,6.1009441942871945e-09,2.9857341128155594,50.2435837590535,50.4017546385123,0.9946204423904419,0.10344406217336655,-0.005408237688243389,0.0005624759942293167
0.0265,45.12685210326975,0.4736300276693744,35.63974192536712,0.06531280147529459,0.95026138794459,0.7879378769197259,12.074026107788086,-0.6391369700431824,-9.997180860921162e-10,3.028629196491589,50.238735469695044,50.401476788317375,0.9944387078285217,0.10516927391290665,-0.005546561907976866,0.0005865900893695652
0.027,44.83678807167606,0.49096438353438765,35.6438046186951,0.06623728251412081,0.9500349193558285,0.7878124252799806,12.271855354309082,-0.6553861498832703,4.411725706976455e-10,3.072048840507052,50.23373500199607,50.4011686139853,0.9942549467086792,0.10688580572605133,-0.00568652618676424,0.0006113210110925138
0.0275,44.5429592760765,0.5086272509022731,35.647583813858745,0.06717230805069567,0.9498054810607314,0.7876867743518716,12.468716621398926,-0.671832263469696,3.926611924498502e-09,3.115977103698858,50.228580810699086,50.40082919601156,0.99406898021698,0.10859362781047821,-0.00582813611254096,0.0006366745801642537
0.028,44.24544162547275,0.5266178852885354,35.65106417677306,0.06811752581755962,0.9495731260063601,0.7875609988013511,12.66461181640625,-0.6884762048721313,-6.6845848856189605e-09,3.160397847527062,50.2232714582358,50.40045762808568,0.9938809871673584,0.11029274761676788,-0.005971397273242474,0.0006626565591432154
0.0285,43.94431109918472,0.5449354804806896,35.65423048365617,0.06907257980181293,0.9493379067765453,0.7874351714945234,12.859540939331055,-0.7053191065788269,8.317630140197707e-09,3.2052947437185444,50.21780561884782,50.40005301771014,0.993691086769104,0.11198316514492035,-0.006116315722465515,0.0006892730016261339
0.029,43.63964369466043,0.5635791683648887,35.657067632938585,0.07003711041664257,0.949099875539873,0.7873093634024041,13.053506851196289,-0.7223613262176514,1.2715989372580339e-09,3.2506512822193923,50.21218208248749,50.39961448675604,0.993499219417572,0.11366487294435501,-0.006262894719839096,0.0007165291463024914
0.029500000000000002,43.3315153758196,0.5825480189378837,35.659560656849614,0.07101075467818234,0.9488590839985719,0.7871836435099725,13.246504783630371,-0.7396034598350525,-7.606630880729881e-09,3.2964507794518516,50.206399758490704,50.399141171956806,0.9933054447174072,0.11533787846565247,-0.0064111375249922276,0.0007444305811077356
0.03,43.020002021982634,0.6018410405033237,35.6616947326654,0.07199314638761795,0.9486155833383391,0.7870580787296323,13.438536643981934,-0.7570459842681885,-1.050019449166939e-08,3.3426763868710303,50.20045767901228,50.39863222534023,0.9931097626686096,0.11700217425823212,-0.0065610469318926334,0.0007729827193543315
0.0305,42.705179377433204,0.6214571800508129,35.66345519360304,0.07298391631843852,0.9483694241791922,0.7869327338191867,13.629598617553711,-0.7746891379356384,-1.7415859865366201e-09,3.389311099815773,50.19435500221717,50.398086814601044,0.992912232875824,0.11865773797035217,-0.006712623871862888,0.0008021905086934566
0.031,42.38712300166316,0.6413953238155512,35.66482753934732,0.0739826924087245,0.9481206565273882,0.7868076713044235,13.819695472717285,-0.7925334572792053,-2.8845585919867744e-09,3.436337766647435,50.1880910152193,50.39750412341466,0.9927129149436951,0.12030459195375443,-0.0068658702075481415,0.0008320589549839497
0.0315,42.065908220346735,0.6616542980157677,35.66579744619627,0.07498909995835222,0.9478693297284768,0.7866829514063962,14.008828163146973,-0.8105790615081787,2.523889097716392e-09,3.483739098169592,50.18166513676167,50.39688335169427,0.9925119876861572,0.12194275110960007,-0.007020785938948393,0.0008625930640846491
0.032,41.74161007708866,0.6822328697646177,35.66635077681328,0.07600276183098353,0.9476154924215533,0.7865586319734762,14.196990013122559,-0.8288258910179138,3.333538112215706e-09,3.5314976773209406,50.175076919631735,50.39622371579324,0.9923092126846313,0.12357217818498611,-0.007177369669079781,0.0008937972597777843
0.0325,41.41430328599134,0.703129748152614,35.666473589573705,0.07702329866069978,0.947359192494754,0.7864347684182419,14.384186744689941,-0.8472742438316345,-6.080260739338428e-09,3.579595969133077,50.168326052805995,50.395524448654584,0.9921048879623413,0.12519291043281555,-0.007335620932281017,0.0009256760240532458
0.033,41.08406218508233,0.7243435854961122,35.666152147495346,0.07805032906312748,0.9471004770420512,0.7863114136592567,14.570420265197754,-0.8659238815307617,-7.334866047870037e-09,3.6280163309440883,50.16141236331907,50.39478479990984,0.9918988943099976,0.12680494785308838,-0.0074955374002456665,0.0009582338971085846
0.0335,40.75096069064376,0.7458729787468359,35.66537292674258,0.07908346985089366,0.9468393923214118,0.7861886180677855,14.75568675994873,-0.8847745656967163,-3.954533589478615e-09,3.6767410228581947,50.15433581785301,50.39400403593003,0.9916913509368896,0.128408282995224,-0.007657114882022142,0.0009914747206494212
0.034,40.415072252482666,0.7677164710568629,35.66412262469481,0.08012233625323971,0.9465759837143546,0.7860664294194819,14.939986228942871,-0.9038260579109192,7.246172994967992e-09,3.725752218441201,50.14709652404282,50.39318143983063,0.9914822578430176,0.13000290095806122,-0.007820350117981434,0.0010254023363813758
0.0345,40.076469810180285,0.7898725534929898,35.66238816757104,0.08116654213960928,0.9463102956869655,0.7859448928510617,15.123320579528809,-0.9230781197547913,2.2984534275849455e-09,3.775032015640664,50.13969473149578,50.392316311434094,0.9912716746330261,0.13158881664276123,-0.00798523984849453,0.0010600205278024077
0.035,39.735225750356044,0.8123396668938866,35.660156717602845,0.08221570024702089,0.9460423717524133,0.7858240508219927,15.305689811706543,-0.9425302743911743,3.281892979600798e-09,3.8245624479193174,50.13213083252154,50.391407967191824,0.9910596013069153,0.13316605985164642,-0.00815177708864212,0.0010953327873721719
0.035500000000000004,39.391411864980874,0.8351162038629508,35.65741567974944,0.0832694224110214,0.9457722544350081,0.7857039430811915,15.487099647521973,-0.9621821641921997,1.2880303490447886e-09,3.874325495589493,50.12440536257165,50.39045574006894,0.9908462166786194,0.1347346305847168,-0.008319957181811333,0.0011313423747196794
0.036000000000000004,39.04509931077253,0.8582005108893124,35.65415270794862,0.08432731980001147,0.9454999852358531,0.7855846066387245,15.667543411254883,-0.9820327758789062,-4.996526303813198e-09,3.924303097335919,50.11651900038797,50.389458979394924,0.9906313419342041,0.13629452884197235,-0.008489771746098995,0.0011680524330586195
0.0365,38.69635856970388,0.881590890588985,35.65035571089908,0.08538900315272248,0.9452256046001168,0.7854660757424975,15.847026824951172,-1.002081274986267,7.451149031112436e-09,3.97447716191363,50.108472567859025,50.38841705068277,0.990415096282959,0.13784575462341309,-0.008661212399601936,0.0012054656399413943
0.037,38.345259410653625,0.9052856040577276,35.64601285736966,0.0864540830186167,0.9449491518859775,0.7853483818599107,16.025548934936523,-1.0223275423049927,4.4053876102623235e-09,4.024829580007223,50.100267029585375,50.3873293354201,0.9901976585388184,0.1393883377313614,-0.008834273554384708,0.0012435847893357277
0.0375,37.991870852226484,0.9292828733267797,35.64111258103286,0.08752217000097452,0.9446706653352636,0.7852315536644355,16.203107833862305,-1.0427699089050293,1.3305572643673713e-08,4.075342236237336,50.09190349215499,50.38619523083528,0.9899787902832031,0.14092226326465607,-0.009008943103253841,0.0012824120931327343
0.038,37.63626112676935,0.9535808839122415,35.635643584819626,0.08859287500242388,0.9443901820458319,0.7851156170270769,16.37971305847168,-1.063408374786377,-4.440181999854076e-09,4.125997021299631,50.08338320313077,50.3850141496417,0.9897589087486267,0.1424475759267807,-0.009185215458273888,0.0013219498796388507
0.0385,37.27849764560647,0.9781777874485196,35.62959484479452,0.08966580947266022,0.9441077379457055,0.7850005950126612,16.55535316467285,-1.0842407941818237,-9.823333257941158e-09,4.176775844221312,50.07470754975248,50.38378551976336,0.9895375967025757,0.1439642310142517,-0.009363074786961079,0.0013621996622532606
0.039,36.9186469655167,1.0030717043959354,35.62295561355022,0.09074058565809723,0.9438233677690143,0.7848865078808885,16.730045318603516,-1.10526704788208,-3.129568826309992e-09,4.227660644719682,50.06587805735731,50.38250878404542,0.9893153309822083,0.14547231793403625,-0.009542513638734818,0.0014031638856977224
0.0395,36.556774756472606,1.0282607268122792,35.615715423121756,0.09181681685318203,0.9435371050337394,0.7847733730920774,16.903770446777344,-1.126484990119934,4.270525710836637e-09,4.278633405647064,50.05689638752197,50.38118339995198,0.9890918135643005,0.14697174727916718,-0.009723518043756485,0.0014448431320488453
0.04,36.19294577066017,1.0537429211778553,35.607864087421405,0.09289411765310324,0.9432489820213164,0.7846612053175205,17.076549530029297,-1.147894024848938,1.6981946959759853e-09,4.329676165505951,50.04776433593256,50.379808839255446,0.9888673424720764,0.14846260845661163,-0.009906076826155186,0.001487238914705813
0.0405,35.82722381279602,1.0795163312632625,35.599391704196236,0.09397210420761143,0.9429590297580871,0.7845500164543686,17.248367309570312,-1.1694918870925903,-2.8469284707455245e-09,4.380771031018088,50.038483829986305,50.37838458771952,0.9886416792869568,0.14994488656520844,-0.010090173222124577,0.0015303520485758781
0.041,35.45967171175692,1.1055789810290382,35.590288656510594,0.09505039447567032,0.9426672779986432,0.7844398156449359,17.419235229492188,-1.1912776231765747,-1.1334476468505272e-08,4.431900189730925,50.02905692613244,50.37691014477978,0.988415002822876,0.15141859650611877,-0.010275795124471188,0.0015741832321509719
0.0415,35.0903512935348,1.131928877546004,35.58054561375754,0.09612860848064816,0.9423737552110544,0.7843306093003385,17.58915901184082,-1.213249921798706,3.943375403991922e-09,4.483045922644712,50.019485806958166,50.375385023223885,0.9881874918937683,0.15288376808166504,-0.010462927632033825,0.0016187331639230251
0.042,34.719323355528985,1.1585640139251216,35.57015353220286,0.09720636856575568,0.942078488564014,0.7842224011283403,17.758127212524414,-1.2354063987731934,-4.136980091828946e-09,4.534190616843258,50.00977277802784,50.37380874887547,0.9879589080810547,0.15434040129184723,-0.01065155304968357,0.0016640013782307506
0.0425,34.34664764218458,1.185482372245459,35.55910365506689,0.09828329964943451,0.941781503915896,0.7841151921653029,17.9261474609375,-1.2577458620071411,3.8942733482372205e-09,4.585316778111435,49.999920264482796,50.37218086028338,0.9877294898033142,0.15578851103782654,-0.010841659270226955,0.0017099884571507573
0.043000000000000003,33.97238282198578,1.2126819264688358,35.54738751214977,0.0993590294803933,0.9414828258057419,0.7840089808121048,18.09322738647461,-1.280266523361206,5.057867458191367e-10,4.6364070435222215,49.98993080741113,50.370500908419935,0.9874991774559021,0.15722812712192535,-0.011033226735889912,0.0017566937021911144
0.043500000000000004,33.59658646580943,1.2401606453296732,35.53499691900668,0.10043318889198898,0.9411824774461672,0.7839037628739096,18.259357452392578,-1.3029662370681763,-5.644193556975097e-09,4.687444193976253,49.97980705999563,50.36876845639001,0.9872680306434631,0.15865924954414368,-0.011226238682866096,0.0018041165312752128
0.044,33.2193150266437,1.267916495188527,35.521923975679684,0.10150541205564564,0.9408804807182097,0.7837995316036401,18.424541473388672,-1.3258427381515503,1.1141958466964752e-08,4.738411166676631,49.9695517834509,50.366983079154174,0.9870359301567078,0.1600818783044815,-0.011420674622058868,0.0018522558966651559
0.0445,32.840623820674246,1.295947442837822,35.50816106499433,0.10257533673300408,0.940576856168092,0.7836962777490247,18.588787078857422,-1.348894715309143,4.212568072148315e-09,4.789291067522006,49.95916784275853,50.365144363267426,0.9868031144142151,0.16149607300758362,-0.011616519652307034,0.0019011110998690128
0.045,32.46056700973923,1.3242514582483584,35.4937008504291,0.10364260452649054,0.940271623005919,0.7835939896030679,18.752098083496094,-1.3721197843551636,-3.957204008919746e-10,4.840067183400791,49.94865820221196,50.36325190663644,0.9865696430206299,0.1629018634557724,-0.011813754215836525,0.0019506808603182435
0.0455,32.07919758515197,1.3528265172452474,35.478536273566824,0.10470686112799651,0.9399647991062805,0.7834926530577933,18.914464950561523,-1.3955155611038208,2.484801875368703e-08,4.8907229943697175,49.93802592078164,50.361305318296765,0.9863353371620178,0.16429919004440308,-0.012012355029582977,0.0020009628497064114
0.046,31.69656735288949,1.3816706041020503,35.4626605511373,0.10576775656535661,0.9396564010107673,0.7833922516611082,19.075899124145508,-1.4190800189971924,-2.6420259757742315e-08,4.941242185699829,49.92727414731239,50.35930421821233,0.986100435256958,0.1656881421804428,-0.012212305329740047,0.002051955321803689
0.0465,31.31272692014246,1.4107817140420926,35.44606717166172,0.1068249454463161,0.9393464439323723,0.7832927666766338,19.23640251159668,-1.4428106546401978,-1.970212970547891e-08,4.991608659773465,49.91640611556424,50.357248237098545,0.9858648777008057,0.1670687198638916,-0.012413580901920795,0.0021036562975496054
0.047,30.927725683221613,1.4401578556360572,35.42874989170927,0.10787808719967777,0.9390349417617712,0.7831941771463342,19.395973205566406,-1.466705083847046,-2.0209736106835408e-08,5.04180654781579,49.905425139109795,50.3551370162709,0.9856286644935608,0.16844093799591064,-0.01261616125702858,0.002156063448637724
0.0475,30.541611816813017,1.4697970530852544,35.41070273177714,0.10892684631331946,0.9387219070754588,0.7830964599557905,19.55461311340332,-1.4907609224319458,-8.487655911437741e-09,5.091820221444739,49.89433460609964,50.352970207520094,0.9853919148445129,0.16980482637882233,-0.01282002404332161,0.002209173748269677
0.048,30.154432264574137,1.499697348380173,35.391919971805585,0.10997089256877818,0.9384073511457255,0.7829995899019427,19.712329864501953,-1.5149755477905273,-8.513139526655777e-09,5.141634304023639,49.88313797390964,50.35074747301538,0.9851545691490173,0.17116039991378784,-0.013025146909058094,0.0022629841696470976
0.0485,29.76623273106036,1.529856803324241,35.37239614634063,0.11100990127209463,0.9380912839524385,0.7829035397631451,19.869112014770508,-1.5393458604812622,8.099093840030491e-09,5.191233681800884,49.87183876368192,50.34846848523639,0.9849165678024292,0.1725076586008072,-0.013231503777205944,0.002317491453140974
0.049,29.377057674970434,1.5602735014130433,35.352126039356286,0.11204355348062031,0.9377737141966175,0.782808280371356,20.024980545043945,-1.5638705492019653,2.1229126900834672e-08,5.240603514821565,49.86044055477363,50.34613292693504,0.9846782684326172,0.17384666204452515,-0.013439076952636242,0.002372692571952939
0.0495,28.986950303698467,1.5909455495595837,35.33110467875012,0.11307153622548866,0.9374546493157558,0.7827137806862945,20.17991828918457,-1.5885452032089233,2.1064769484269164e-08,5.289729247596275,49.848946979126104,50.34374049112756,0.9844392538070679,0.17517738044261932,-0.01364783477038145,0.002428582636639476
0.05,28.59595256917742,1.6218710796565934,35.30932733052487,0.11409354272945846,0.9371340955008758,0.7826200078713971,20.333946228027344,-1.6133687496185303,-2.3609962873649692e-09,5.338596619512611,49.83736171556809,50.341290881117544,0.9842000007629395,0.17649991810321808,-0.013857760466635227,0.0024851590860635042
0.0505,28.20410516499945,1.6530482499672785,35.28678949267018,0.11510927261984147,0.9368120577152687,0.7825269273713988,20.4870548248291,-1.6383370161056519,-7.692500525458001e-10,5.3871916749755036,49.82568848406638,50.338783810550005,0.9839602112770081,0.17781423032283783,-0.01406882330775261,0.002542416797950864
0.051000000000000004,27.81144752479546,1.68447524633637,35.26348688875873,0.1161184321362328,0.9364885397148872,0.7824345029913703,20.639253616333008,-1.6634480953216553,-1.5393302632560335e-08,5.435500773262881,49.81393103993699,50.33621900349658,0.9837201237678528,0.17912037670612335,-0.014281000941991806,0.002600351581349969
0.051500000000000004,27.41801782185621,1.7161502832138011,35.23941546127069,0.11712073433276614,0.9361635440703545,0.7823426969770418,20.790538787841797,-1.6886980533599854,7.266974577646579e-09,5.483510598083564,49.80209316803057,50.33359619457192,0.9834795594215393,0.18041834235191345,-0.014494264498353004,0.002658958313986659
0.052000000000000005,27.02385296997556,1.7480716044838316,35.21457136466136,0.1181158992746249,0.93583707219054,0.7822514700962392,20.940914154052734,-1.7140849828720093,-2.196476245330814e-08,5.531208166825012,49.79017867690517,50.330915129080864,0.9832387566566467,0.1817082017660141,-0.014708591625094414,0.002718232572078705
0.0525,26.62898862549538,1.780237484092975,35.188950958186865,0.1191036542285457,0.9355091243476705,0.7821607817212746,21.090381622314453,-1.7396048307418823,4.699676203756553e-09,5.57858083947879,49.778191392999474,50.32817556319604,0.9829975366592407,0.1829899251461029,-0.014923951588571072,0.002778168534860015
0.053,26.23345919053068,1.8126462264706056,35.162550798503,0.12008373384705733,0.9351796997039123,0.782070589912112,21.23895263671875,-1.7652554512023926,-2.1981474418453217e-08,5.625616327232428,49.76613515481954,50.32537726416519,0.9827561378479004,0.18426360189914703,-0.015140321105718613,0.002838761080056429
0.0535,25.83729781735217,1.8452961667366883,35.135367632052215,0.12105588034620789,0.9348487963393944,0.7819808515001587,21.386619567871094,-1.7910335063934326,1.7520902062528876e-08,5.672302700716663,49.754013807151864,50.32252001054741,0.982514500617981,0.1855292171239853,-0.015357671305537224,0.0029000048525631428
0.054,25.440536413902926,1.878185670691706,35.10739838725474,0.12201984367653887,0.934516411281607,0.7818915221725029,21.53339195251465,-1.816935420036316,-2.7680542302732647e-09,5.718628397897835,49.74183119531552,50.3196035924777,0.9822726249694824,0.18678681552410126,-0.015575975179672241,0.002961893333122134
0.0545,25.043205650424376,1.911313134584394,35.07864016651871,0.12297538168707481,0.9341825405361333,0.7818025565564601,21.679256439208984,-1.8429580926895142,-9.301356129753913e-09,5.764582231605547,49.72959115946525,50.31662781195806,0.9820303916931152,0.18803635239601135,-0.015795202925801277,0.003024420002475381
0.055,24.645334967166228,1.944676984653551,35.049090238085306,0.12392226028210668,0.9338471791186471,0.7817139083042489,21.824234008789062,-1.8690986633300781,8.363010839396168e-10,5.810153396686641,49.717297528958,50.313592483174595,0.9817880988121033,0.18927793204784393,-0.01601533032953739,0.003087579272687435
0.0555,24.246952583154012,1.9782756764408742,35.01874602772496,0.12486025357055362,0.9335103210881391,0.7816255301776599,21.968320846557617,-1.8953536748886108,2.4929157405040314e-08,5.8553314767766835,49.704954116794674,50.31049743283902,0.981545627117157,0.190511554479599,-0.016236325725913048,0.003151364391669631
0.056,23.848085505987044,2.0121076938723435,34.98760511029967,0.12578914400770164,0.9331719595812905,0.781537374132566,22.111526489257812,-1.9217201471328735,1.189439036153317e-08,5.900106450681209,49.692564714147665,50.30734250055263,0.9813030958175659,0.19173729419708252,-0.016458163037896156,0.0032157686073333025
0.0565,23.44875954263899,2.0461715481063836,34.9556652012078,0.12670872252912518,0.9328320868479492,0.781449391403117,22.253841400146484,-1.948194146156311,1.7347018044233664e-08,5.94446869835938,49.680133084986295,50.30412753919181,0.9810603260993958,0.1929551064968109,-0.01668081060051918,0.0032807847019284964
0.057,23.04899931123222,2.080465776147754,34.922924147727,0.12761878867660822,0.9324906942876418,0.7813615325854947,22.39527130126953,-1.974772334098816,-9.207459683580055e-09,5.98840900650326,49.667662960809665,50.30085241531284,0.9808174967765808,0.19416505098342896,-0.016904238611459732,0.0033464047592133284
0.0575,22.648828253756765,2.114988939226722,34.88937992027129,0.12851915071589382,0.9321477724870585,0.7812737477210777,22.535829544067383,-2.0014517307281494,2.402865817430211e-08,6.03191857370677,49.655158035497706,50.29751700957429,0.9805746674537659,0.19536717236042023,-0.017128420993685722,0.0034126227255910635
0.058,22.248268649703842,2.1497396209438504,34.85503060357734,0.1294096257461012,0.9318033112584411,0.7811859863788913,22.675504684448242,-2.028228521347046,1.3335418991289316e-08,6.074989015218856,49.64262196028958,50.29412121717496,0.9803317189216614,0.19656145572662354,-0.017353326082229614,0.0034794295206665993
0.0585,21.847341630583387,2.1847164251814037,34.819874387837,0.13029003980066217,0.9314572996788222,0.781098197737213,22.81431007385254,-2.0550999641418457,2.0534205447120257e-08,6.117612367276093,49.630058338899204,50.2906649483056,0.9800888299942017,0.19774797558784485,-0.01757892780005932,0.003546818858012557
0.059000000000000004,21.446067195294454,2.219917973783056,34.78390955979006,0.13116022793963775,0.931109726130027,0.7810103306642133,22.95224952697754,-2.0820624828338623,-5.925382406957169e-09,6.159781091010587,49.61747072277563,50.28714812861169,0.9798459410667419,0.19892674684524536,-0.0178051944822073,0.003614781890064478
0.059500000000000004,21.044464226317064,2.255342904004341,34.74713449379414,0.132020034333292,0.9307605783393851,0.7809223337975116,23.089319229125977,-2.109112024307251,-1.743798883069303e-08,6.201488075929692,49.60486260651715,50.28357069966564,0.979603111743927,0.20009778439998627,-0.018032098188996315,0.0036833109334111214
0.06,20.64255050669348,2.2909898657369205,34.70954764288602,0.132869312336808,0.9304098434210786,0.7808341556225403,23.22551918029785,-2.1362457275390625,-9.586957006035846e-09,6.242726642964607,49.59223742344652,50.27993261944581,0.9793602228164673,0.20126110315322876,-0.018259605392813683,0.003752396907657385
0.0605,20.240342737766262,2.326857518510505,34.67114752985031,0.13370792455604597,0.9300575079180552,0.7807457445496089,23.360864639282227,-2.1634597778320312,-1.4227401479161017e-08,6.283490547085655,49.579598541353995,50.276233862820156,0.9791175127029419,0.2024167776107788,-0.01848769001662731,0.003822032129392028
0.061,19.83785655764091,2.3629445282769215,34.63193273830966,0.13453574290425455,0.9297035578444321,0.7806570489895654,23.495349884033203,-2.190751075744629,2.8787507488914343e-08,6.32377397948255,49.566949258415086,50.272474422032,0.9788748621940613,0.2035648077726364,-0.018716320395469666,0.0038922077510505915
0.0615,19.43510656033962,2.399249563981499,34.591901903852076,0.13535264864966012,0.9293479787283228,0.7805680174279669,23.628978729248047,-2.2181155681610107,-3.3365665785822785e-08,6.363571569308711,49.55429279928855,50.26865430718558,0.9786323308944702,0.20470522344112396,-0.018945466727018356,0.003962913993746042
0.062,19.032106315613138,2.435771293927697,34.55105370520915,0.13615853245387027,0.9289907556550167,0.7804785984976615,23.76175308227539,-2.2455499172210693,-3.554321992282894e-08,6.40287838498909,49.54163231140031,50.26477354672915,0.9783899188041687,0.20583805441856384,-0.019175099208950996,0.004034142941236496
0.0625,18.628868389377338,2.472508381941464,34.50938685549989,0.13695329440104234,0.9286318733104336,0.780388741049709,23.893678665161133,-2.273050546646118,-2.235977980546977e-08,6.441689935091823,49.5289708614177,50.260832187932834,0.9781476259231567,0.20696333050727844,-0.019405188038945198,0.00410588551312685
0.063,18.225404364740676,2.5094594833425523,34.466900093554145,0.1377368440177774,0.9282713160247754,0.7802983942225533,24.024757385253906,-2.3006138801574707,-5.871341635099725e-09,6.480002168764347,49.51631143191808,50.25683029735886,0.9779055118560791,0.20808108150959015,-0.019635701552033424,0.004178131464868784
0.0635,17.82172486358906,2.546623240730657,34.42359217532892,0.13850910028371902,0.9279090678163218,0.7802075075093817,24.154996871948242,-2.328237771987915,-5.31725774521874e-08,6.517811475735444,49.503656918256134,50.25276796132221,0.9776636958122253,0.20919136703014374,-0.019866617396473885,0.0042508733458817005
0.064,17.41783956869429,2.5839982795948395,34.37946186543173,0.13926999163284207,0.927545112435267,0.7801160308236045,24.284393310546875,-2.3559165000915527,-2.154441425261666e-08,6.555114685885074,49.49101012563159,50.24864528633834,0.9774219393730164,0.2102941870689392,-0.020097896456718445,0.004324100445955992
0.0645,17.013757246312096,2.6215832037553453,34.33450792876341,0.1400194559454362,0.9271794334075525,0.7800239145623955,24.412961959838867,-2.383648633956909,-4.3401833238476684e-08,6.5919090683844965,49.47837376636091,50.244462399556426,0.977180540561676,0.21138960123062134,-0.020329518243670464,0.004397803917527199
0.065,16.60948576923616,2.659376590647561,34.28872912229377,0.14075744053079725,0.9268120140786065,0.7799311096682403,24.540691375732422,-2.4114294052124023,-2.1837575303607082e-08,6.628192330409711,49.465750457354005,50.24021944917533,0.9769393801689148,0.21247760951519012,-0.020561445504426956,0.004471973050385714
0.0655,16.205032140274348,2.6973769864583392,34.24212418698217,0.14148390210065664,0.9264428376569201,0.7798375676884455,24.66758918762207,-2.439255714416504,1.4402929515711094e-08,6.663962615431843,49.453142717797434,50.235916604839815,0.9766985177993774,0.21355822682380676,-0.020793652161955833,0.004546598065644503
0.066,15.800402516113293,2.735582901125563,34.1946918398553,0.14219880673338717,0.9260718872573948,0.7797432408325691,24.79365348815918,-2.4671237468719482,-1.5970628153283428e-09,6.699218501088446,49.440552967044816,50.23155405801506,0.9764578342437744,0.21463149785995483,-0.021026108413934708,0.0046216691844165325
0.0665,15.395602231538195,2.773992803212273,34.14643076625389,0.14290212982904107,0.9256991459443745,0.7796480820277338,24.918895721435547,-2.495030164718628,4.087520011353263e-08,6.733958996640459,49.42798352271413,50.22713202233669,0.9762174487113953,0.21569745242595673,-0.02125878632068634,0.004697177093476057
0.067,14.990635823973935,2.8126051146672326,34.097339612259475,0.1435938560552843,0.9253245967743147,0.7795520449717946,25.04332733154297,-2.5229732990264893,3.850052721077191e-09,6.7681835400197174,49.415436598992244,50.22265073393488,0.9759775996208191,0.2167561799287796,-0.02149166166782379,0.004773112013936043
0.0675,14.585507058314942,2.851418205484212,34.04741697731225,0.14427397928430769,0.924948222837991,0.7794550841843418,25.16693115234375,-2.5509467124938965,-1.3112702035300572e-08,6.801891994472727,49.40291430514462,50.21811045172927,0.9757378697395325,0.2178076207637787,-0.021724695339798927,0.004849462304264307
0.068,14.180218952010453,2.890430388272799,33.99666140703045,0.14494250252080304,0.9245700073021974,0.7793571550555058,25.289724349975586,-2.578949213027954,2.5562005845358726e-08,6.835084644806587,49.39041864422972,50.21351145769379,0.975498616695404,0.21885184943675995,-0.021957866847515106,0.004926219116896391
0.0685,13.774773800372706,2.9296399127538924,33.945071386241224,0.14559943782111082,0.9241899334508604,0.7792582138925724,25.411693572998047,-2.60697603225708,-3.475388421492198e-09,6.86776219324359,49.377951512015386,50.20885405708857,0.9752596020698547,0.2198888659477234,-0.022191142663359642,0.0050033703446388245
0.069,13.369173202075745,2.9690449601934503,33.89264533223281,0.1462448062036519,0.9238079847254971,0.7791582179643788,25.532873153686523,-2.6350257396698,-5.9471179980619127e-08,6.899925754891393,49.36551469609503,50.20413857865726,0.9750211834907532,0.22091880440711975,-0.022424504160881042,0.005080909468233585
0.0695,12.963418084812725,3.00864363778841,33.839381588236705,0.14687863755077163,0.9234241447649515,0.7790571255435037,25.653236389160156,-2.663093328475952,-2.7214385411866715e-08,6.931576852836049,49.35310987520041,50.199365374787845,0.9747830629348755,0.22194157540798187,-0.022657914087176323,0.005158822517842054
0.07,12.557508731080196,3.048433973018997,33.78527841714924,0.1475009705021339,0.9230383974443608,0.7789548959462448,25.772802352905273,-2.691176176071167,6.48557962890095e-09,6.962717412865546,49.340738618708144,50.194534821635536,0.9745453596115112,0.22295725345611572,-0.022891350090503693,0.00523710111156106
0.07050000000000001,12.151444804058029,3.0884139079819675,33.730333995499805,0.1481118523398164,0.9226507269132531,0.778851489570393,25.891565322875977,-2.7192704677581787,3.855900931881706e-09,6.993349757832159,49.32840238633509,50.189647319205335,0.9743080735206604,0.22396588325500488,-0.023124782368540764,0.005315733607858419
0.07100000000000001,11.74522537355431,3.1285812937195296,33.67454640767438,0.14871133886526539,0.9222611176327582,0.7787468679308139,26.009540557861328,-2.7473738193511963,-4.656668384228624e-09,7.023476601661759,49.31610252801966,50.18470329139362,0.9740713238716125,0.22496750950813293,-0.023358186706900597,0.005394710693508387
0.07150000000000001,11.338848941984628,3.168933884558928,33.617913640401284,0.14929949426828457,0.9218695544118359,0.7786409936928558,26.1267147064209,-2.775482177734375,-3.0544025086953752e-09,7.053101043019237,49.30384028398331,50.17970318598656,0.9738349318504333,0.2259621024131775,-0.023591533303260803,0.005474020726978779
0.07200000000000001,10.932313470356119,3.2094693324778545,33.56043357750557,0.14987639098823868,0.9214760224424801,0.7785338307035999,26.24310874938965,-2.803593635559082,4.916103435448349e-08,7.082226558639018,49.2916167849676,50.17464747461414,0.9735991954803467,0.2269497662782669,-0.023824801668524742,0.00555365439504385
0.0725,10.525616404226778,3.250185181510972,33.50210399493889,0.15044210956766313,0.9210805073338398,0.7784253440209762,26.35870933532715,-2.8317034244537354,4.150236065925128e-08,7.110856996330199,49.27943305264188,50.16953665265901,0.9733638167381287,0.2279304563999176,-0.024057960137724876,0.00563359959051013
0.073,10.11875469961129,3.2910788622129252,33.44292255609039,0.15099673849848247,0.9206829951452086,0.7783154999407802,26.473533630371094,-2.8598105907440186,7.293056114576757e-08,7.138996567666051,49.26729000017538,50.16437123911847,0.9731290936470032,0.22890426218509674,-0.024290990084409714,0.005713847931474447
0.0735,9.711724848805057,3.3321476861932875,33.38288680738383,0.15154037406104962,0.9202834724178095,0.7782042660216091,26.58757209777832,-2.8879096508026123,1.7659333551023337e-08,7.1666498403681596,49.255188432968026,50.159151776418696,0.9728947877883911,0.22987118363380432,-0.024523859843611717,0.005794386845082045
0.074,9.30452290609883,3.373388840738905,33.321994174165795,0.15207312015622365,0.919881926205355,0.7780916111077676,26.700834274291992,-2.915999174118042,2.6819931164823174e-08,7.19382173039528,49.24312904953382,50.153878830180474,0.972661018371582,0.23083125054836273,-0.024756547063589096,0.005875207018107176
0.0745,8.897144513356762,3.414799383539076,33.260241956889345,0.15259508813071793,0.9194783441033068,0.7779775053501644,26.81332778930664,-2.9440765380859375,-1.0079914680716229e-08,7.220517493747814,49.231112442530325,50.14855298893555,0.9724279046058655,0.23178453743457794,-0.024989033117890358,0.005956299137324095
0.075,8.489584925431517,3.4563762375289637,33.19762732759634,0.15310639659595263,0.9190727142768115,0.7778619202252538,26.925050735473633,-2.9721381664276123,-3.663005898602023e-08,7.246742717998534,49.219139099927624,50.14317486379292,0.9721953272819519,0.23273104429244995,-0.025221290066838264,0.006037652026861906
0.0755,8.081839035390464,3.498116185866524,33.13414732670271,0.15360717124065953,0.9186650254872536,0.7777448285520608,27.036008834838867,-3.000180959701538,-3.2812895511824536e-08,7.272503313560839,49.20720940630972,50.13774508805428,0.9719633460044861,0.23367078602313995,-0.025453291833400726,0.006119254045188427
0.076,7.673901399527846,3.54001586705811,33.06979886008787,0.15409754463748945,0.9182552671173876,0.7776262045073332,27.14620018005371,-3.0282022953033447,2.9943205248628146e-08,7.2978055047057975,49.19532364430149,50.13226431677844,0.971731960773468,0.23460380733013153,-0.025685016065835953,0.006201095413416624
0.0765,7.265766262138415,3.582071770247761,33.004578696491876,0.15457765604388296,0.9178434291950299,0.7775060236388717,27.255626678466797,-3.056199550628662,2.25634071426839e-08,7.322655820339421,49.18348199611447,50.12673322629463,0.9715011715888977,0.23553012311458588,-0.025916442275047302,0.006283165886998177
0.077,6.8574275800285305,3.62428023068488,32.938483465221225,0.15504765119747024,0.917429502415238,0.7773842628770884,27.364299774169922,-3.08417010307312,-2.4080328842046583e-08,7.34706108455206,49.171684545203235,50.12115251366356,0.9712709784507751,0.23644979298114777,-0.026147549971938133,0.006365455687046051
0.0775,6.448879046741781,3.6666374253849265,32.87150965416437,0.1555076821062722,0.9170134781609837,0.7772609005448454,27.47221565246582,-3.1121110916137695,2.1104805014715566e-08,7.371028406951592,49.15993127802601,50.11552289608713,0.9710414409637451,0.2373628169298172,-0.026378314942121506,0.006447954569011927
0.078,6.040114116476523,3.7091393689972088,32.80365360811805,0.1559579068339816,0.9165953485222644,0.7771359163656265,27.579381942749023,-3.1400201320648193,-1.9222833103071935e-08,7.394565172792631,49.14822208590149,50.10984511026633,0.9708125591278076,0.23826925456523895,-0.026608718559145927,0.006530652288347483
0.0785,5.631126027673732,3.7517819098937815,32.73491152742409,0.1563984892806058,0.916175106313633,0.777009291470095,27.685800552368164,-3.1678946018218994,-2.1730026666944013e-09,7.417679032913773,49.13655676695461,50.104119911707386,0.9705843329429626,0.23916912078857422,-0.026838738471269608,0.006613539066165686
0.079,5.221907826254142,3.7945607264929033,32.665279466916324,0.1568295989587616,0.9157527450901242,0.776881008401101,27.79147720336914,-3.195732593536377,3.303846085600526e-08,7.440377893495327,49.1249350281438,50.098348073976574,0.9703569412231445,0.24006247520446777,-0.027068357914686203,0.006696605123579502
0.0795,4.812452388484591,3.8374713238301417,32.59475333517683,0.15725141076591392,0.9153282591615536,0.776751051117181,27.896408081054688,-3.2235307693481445,6.139147501471598e-08,7.462669905649925,49.113356487362296,50.09253038790419,0.9701300859451294,0.24094928801059723,-0.027297552675008774,0.006779839750379324
0.08,4.4027524434539655,3.880509030389895,32.523328894099954,0.15766410475285283,0.9149016436051693,0.7766194049946287,28.00060272216797,-3.251286506652832,-4.286959676136348e-09,7.4845634548584306,49.10182067560569,50.086667660737575,0.9699039459228516,0.24182963371276855,-0.027526304125785828,0.006863232236355543
0.0805,3.9928005951402437,3.9236689952093973,32.451001758761855,0.1580678658887116,0.9144728942766388,0.7764860568281726,28.10405921936035,-3.2789981365203857,-2.1310706088684128e-08,7.506067150263915,49.09032703919877,50.080760715244324,0.969678521156311,0.24270352721214294,-0.02775459550321102,0.006946774665266275
0.081,3.5825893440506285,3.966946185267004,32.37776739759398,0.15846288382282658,0.9140420078193597,0.776350994830332,28.206785202026367,-3.3066632747650146,1.7305583632776234e-09,7.527189813836312,49.0788749420741,50.074810388766124,0.9694538116455078,0.24357099831104279,-0.027982408180832863,0.0070304567925632
0.0815,3.172111108417646,4.0103353831659065,32.30362113285656,0.15884935264374436,0.9136089816720906,0.7762142086295107,28.30878448486328,-3.3342809677124023,-1.2210704447568332e-08,7.547940469420419,49.06746366809507,50.06881753222392,0.9692299365997314,0.24443212151527405,-0.028209729120135307,0.007114270236343145
0.082,2.7613582449349336,4.0538311851238085,32.22855814140935,0.15922747063568504,0.9131738140748757,0.7760756892668782,28.410051345825195,-3.3618462085723877,1.1264437915770031e-07,7.568328331680233,49.056092423416175,50.062783009075325,0.9690066576004028,0.24528683722019196,-0.028436532244086266,0.0071982042863965034
0.0825,2.350323069017053,4.09742799927863,32.152573455775446,0.15959744003276696,0.9127365040732758,0.7759354291921043,28.510602951049805,-3.389359712600708,2.698313750215675e-08,7.588362794952194,49.0447603388736,50.05670769422511,0.9687842726707458,0.24613526463508606,-0.02866281010210514,0.007282249163836241
0.083,1.938997874568618,4.141120044319596,32.075661965493985,0.1599594667713081,0.9122970515208998,0.7757934222580001,28.61042594909668,-3.4168176651000977,6.140355779393758e-09,7.608053422020426,49.03346647239944,50.0505924728902,0.9685625433921814,0.24697735905647278,-0.028888540342450142,0.0073663960210978985
0.0835,1.5273749532487435,4.184901348452393,31.997818418756808,0.16031376024050867,0.9118554570802339,0.7756496637141262,28.709537506103516,-3.4442191123962402,-2.2545332711843002e-08,7.627409932826573,49.0222098114524,50.04443823941983,0.9683416485786438,0.24781320989131927,-0.029113709926605225,0.007450636476278305
0.084,1.1154466132175844,4.228765748706519,31.91903742432384,0.16066053303183103,0.9114117222217734,0.7755041501994183,28.80792999267578,-3.4715609550476074,-6.946483388503566e-10,7.646442193127304,49.010989275458805,50.0382458960725,0.9681214690208435,0.24864278733730316,-0.029338300228118896,0.00753496028482914
0.0845,0.7032051973526228,4.2727068905920556,31.83931345371157,0.161000000687383,0.9109658492214644,0.7753568797338948,28.905614852905273,-3.498842716217041,2.718308911298095e-09,7.665160203112076,48.999803718257255,50.03201635175065,0.9679021835327148,0.2494661808013916,-0.02956230379641056,0.0076193599961698055
0.085,0.2906431009229704,4.316718228112615,31.758640843648294,0.1613323814476183,0.9105178411564713,0.7752078517094882,29.002593994140625,-3.52606201171875,-6.120592388469959e-08,7.683574085994149,48.988651930541266,50.025750520695,0.9676836729049683,0.2502833902835846,-0.029785703867673874,0.007703825831413269
0.0855,-0.12224721128911852,4.360793024140203,31.677013798789723,0.1616578959986597,0.9100677018992677,0.7750570668800649,29.09886932373047,-3.5532174110412598,-4.205400827572703e-08,7.701694076587429,48.977532642293326,50.01944932113945,0.9674659967422485,0.2510944604873657,-0.030008487403392792,0.007788350805640221
0.08600000000000001,-0.5354731884296249,4.404924351157172,31.594426394687957,0.16197676721955231,0.9096154361100814,0.7749045273506779,29.194433212280273,-3.5803067684173584,1.2971955953844372e-08,7.719530509881846,48.966444525205176,50.013113673928444,0.9672490954399109,0.2518993616104126,-0.03023063950240612,0.007872924208641052
0.08650000000000001,-0.9490421775862431,4.449105092369562,31.51087258100646,0.16228921992975345,0.9091610492277064,0.7747502365661024,29.2893009185791,-3.6073291301727295,-6.18422077991454e-08,7.737093809629898,48.955386195078916,50.00674450109862,0.9670330286026001,0.2526981830596924,-0.030452150851488113,0.007957538589835167
0.08700000000000001,-1.3629614083824024,4.493327943195384,31.42634618497317,0.16259548063715956,0.9087045474586928,0.7745941992987087,29.38347816467285,-3.6342828273773193,-3.379704516248694e-09,7.754394476956845,48.944356214203076,50.00034272442573,0.9668179154396057,0.25349095463752747,-0.030673012137413025,0.008042187429964542
0.08750000000000001,-1.7772379781594634,4.537585413130562,31.34084091506427,0.16289577728696933,0.908245937764955,0.7744364216357109,29.476957321166992,-3.661165714263916,-2.089243267278107e-08,7.771443079006869,48.933353093699566,49.99390926393941,0.9666035771369934,0.25427767634391785,-0.030893204733729362,0.008126860484480858
0.088,-2.1918788377539458,4.581869827994389,31.254350364909666,0.1631903390116807,0.9077852278498089,0.774276910965847,29.569751739501953,-3.687976598739624,-2.2900599194741744e-09,7.788250237637618,48.922375295836105,49.98744503640703,0.9663901329040527,0.2550583779811859,-0.03111272118985653,0.008211549371480942
0.0885,-2.606890777875836,4.6261733325556875,31.16686801741154,0.16347939588251165,0.9073224261424765,0.7741156759655218,29.661849975585938,-3.714714765548706,-6.105918259891041e-08,7.80482661817516,48.91142123630034,49.980950953789,0.9661775231361389,0.25583308935165405,-0.03133155405521393,0.008296247571706772
0.089,-3.022280416093265,4.670487893539795,31.078387249067223,0.16376317866253473,0.9068575417810787,0.7739527265844686,29.75326919555664,-3.7413785457611084,1.9895054492735653e-08,7.821182918241464,48.90048928643066,49.97442792166659,0.9659658074378967,0.25660184025764465,-0.031549692153930664,0.008380947634577751
0.0895,-3.438054184428042,4.714805303015856,30.988901334486904,0.16404191856180755,0.906390584594158,0.7737880740309533,29.843997955322266,-3.7679667472839355,-2.1356031609798265e-08,7.837329856666189,48.889577775400966,49.967876837645505,0.9657549858093262,0.2573646605014801,-0.03176712617278099,0.008465641178190708
0.09,-3.8542183175657896,4.759117182162916,30.898403451096407,0.16431584699477864,0.9059215650807644,0.7736217307565773,29.934057235717773,-3.794478178024292,-2.9194456629966226e-08,7.853278162494533,48.87868499235471,49.96129858973602,0.9655450582504272,0.2581215798854828,-0.03198384866118431,0.008550322614610195
0.0905,-4.270778841683646,4.803414985412609,30.80688668401544,0.1645851953402413,0.9054504943891332,0.7734537104406968,30.023433685302734,-3.820911407470703,1.673799232548845e-07,7.869038564102635,48.86780918848567,49.95469405471245,0.9653360247612,0.2588725984096527,-0.03219984844326973,0.008634982630610466
0.091,-4.687741563897654,4.847690004965214,30.71434403110118,0.16485019470410361,0.9049773842940049,0.7732840279745089,30.112136840820312,-3.8472657203674316,9.103493425755005e-08,7.884621778431858,48.85694857906195,49.94806409645367,0.9651278853416443,0.25961777567863464,-0.03241512179374695,0.008719613775610924
0.0915,-5.105112062331339,4.891933375675163,30.620768408146493,0.16511107568523714,0.904502247172618,0.7731126994448254,30.20017433166504,-3.8735413551330566,1.2406984772894702e-08,7.90003850035316,48.846101345390636,49.941409564266934,0.9649207592010498,0.26035717129707336,-0.03262966498732567,0.00880421232432127
0.092,-5.522895676805963,4.936136080301116,30.52615265422282,0.16536806814465743,0.9040250959794339,0.7729397421175674,30.287540435791016,-3.89973521232605,3.248433344538171e-08,7.915299392172271,48.835265636721054,49.93473129119757,0.9647144675254822,0.2610907256603241,-0.032843463122844696,0.008888768963515759
0.0925,-5.941097500152305,4.98028895511496,30.43048953715661,0.16562140097828823,0.9035459442196138,0.7727651744210179,30.37424659729004,-3.925847291946411,6.093367233006575e-08,7.930415073286624,48.824439572083364,49.928030092325436,0.9645091891288757,0.2618185579776764,-0.03305651620030403,0.008973279036581516
0.093,-6.359722370143155,5.024382695863213,30.333771759128478,0.1658713018935494,0.9030648059213141,0.772589015928841,30.460285186767578,-3.9518771171569824,-1.729709175890548e-08,7.9453961100043164,48.81362124206175,49.921306763051945,0.9643047451972961,0.2625406086444855,-0.03326881676912308,0.009057733230292797
0.0935,-6.778774862044866,5.068407864073526,30.2359919623841,0.1661179971900032,0.9025816956068385,0.7724112873429132,30.545656204223633,-3.9778242111206055,-3.344721832831965e-08,7.960253005535326,48.80280871049971,49.91456207737843,0.964101254940033,0.2632569372653961,-0.033480361104011536,0.009142127819359303
0.094,-7.198259281785721,5.1123548936980905,30.137142735045682,0.16636171154428692,0.902096628262704,0.7722320104759705,30.630380630493164,-4.003687858581543,8.694107123119466e-08,7.974996190164937,48.792000016136676,49.90779678617917,0.9638988375663757,0.2639676034450531,-0.03369114547967911,0.009226457215845585
0.0945,-7.618179659738099,5.15621409808515,30.037216617012614,0.16660266779955038,0.90160961930865,0.7720512082341126,30.714447021484375,-4.029466152191162,5.2571330400041916e-08,7.989636011619055,48.78119317417384,49.90101161546998,0.9636972546577454,0.26467257738113403,-0.0339011624455452,0.009310713037848473
0.095,-8.038539745110752,5.199975677268822,29.93620610594018,0.16684108675961046,0.901120684565677,0.7718689045991608,30.797866821289062,-4.055160045623779,-4.436067158053447e-08,8.00418272563074,48.77038617776982,49.894207264676204,0.963496744632721,0.2653719484806061,-0.0341104120016098,0.009394890628755093
0.0955,-8.459343000946847,5.243629725566865,29.834103663284512,0.1670771869880248,0.9006298402231275,0.7716851246109129,30.880640029907227,-4.080769062042236,-6.745057135049137e-08,8.018646486717074,48.7595769994636,49.88738440490037,0.9632971882820129,0.26606571674346924,-0.034318894147872925,0.009478986263275146
0.096,-8.880592599722675,5.287166239475208,29.73090172040301,0.1673111846122804,0.900137102804893,0.7714998943492899,30.96275520324707,-4.106290817260742,-1.3363116835307665e-08,8.033037339175172,48.74876359252593,49.880543677193316,0.9630985260009766,0.2667538523674011,-0.03452659770846367,0.009562991559505463
0.0965,-9.302291419541442,5.330575125847355,29.626592684697915,0.16754329313328278,0.8996424891347914,0.7713132409164005,31.04424285888672,-4.13172721862793,-6.792287621237847e-08,8.04736520830572,48.73794389223837,49.87368569083022,0.9629009366035461,0.2674364745616913,-0.03473353013396263,0.009646903723478317
0.097,-9.724442040915646,5.3738462103461115,29.5211689457924,0.16777372324032194,0.8991460163011541,0.7711251924185399,31.12508201599121,-4.157077312469482,-1.8462770867699874e-08,8.061639891872296,48.727115817099175,49.866811021593136,0.9627043604850769,0.26811355352401733,-0.034939683973789215,0.009730716235935688
0.0975,-10.147046744131181,5.416969246154414,29.414622881727187,0.16800268263168538,0.8986477016207104,0.7709357779481262,31.205284118652344,-4.182339668273926,1.6891629428528177e-08,8.07587105180418,48.71627726995782,49.85992021006338,0.9625087380409241,0.26878511905670166,-0.03514505922794342,0.009814424440264702
0.098,-10.570107507185549,5.459933922931369,29.306946865166598,0.16823037584107478,0.898147562601792,0.7707450275655892,31.284849166870117,-4.207514762878418,5.766508337501364e-08,8.090068206150216,48.70542613907711,49.85301375992476,0.9623141288757324,0.26945120096206665,-0.03534965217113495,0.009898022748529911
0.0985,-10.993626004291853,5.5027298759990755,29.198133269602657,0.168457004069978,0.897645616906933,0.7705529722812299,31.36378288269043,-4.232603073120117,5.368522693061095e-08,8.104240721290799,48.694560299124014,49.84609213627998,0.962120532989502,0.2701118290424347,-0.0355534665286541,0.009981506504118443
0.099,-11.417603604939927,5.545346695745095,29.08817447554642,0.16868276502613502,0.8971418823149173,0.7703596440370436,31.442081451416016,-4.257603168487549,5.397693669806358e-08,8.118397804414718,48.683677612090094,49.83915576398267,0.9619279503822327,0.2707670032978058,-0.03575650602579117,0.010064872913062572
0.0995,-11.842041373505158,5.587773937225026,28.977062876694845,0.1689078527682291,0.896636376682325,0.7701650756885327,31.519760131835938,-4.2825164794921875,1.2002240623587568e-07,8.13254849626732,48.67277592814191,49.83220502598616,0.9617363810539246,0.2714167833328247,-0.03595876321196556,0.010148116387426853
0.1,-12.266940069395032,5.630001129948966,28.864790886062906,0.1691324575569237,0.8961291179046359,0.7699693009865035,31.596811294555664,-4.307341575622559,-1.1437668234748344e-07,8.146701664175954,48.661853086402644,49.82524026171156,0.9615458250045776,0.27206119894981384,-0.036160241812467575,0.010231231339275837
0.1005,-12.692300147722937,5.672017787835327,28.75135094207006,0.16935676571235592,0.8956201238769511,0.7697723545588617,31.67324447631836,-4.33207893371582,-1.8478508723163145e-09,8.160865995358314,48.65090691566625,49.818261765436674,0.9613563418388367,0.2727002501487732,-0.03636094182729721,0.01031421683728695
0.101,-13.118121760498239,5.713813419314835,28.636735514570557,0.16958095947818713,0.8951094124543699,0.769574271892411,31.749053955078125,-4.356729030609131,-8.464108702810336e-08,8.175049990518982,48.63993523504458,49.811269784707314,0.9611678719520569,0.27333396673202515,-0.036560870707035065,0.010397067293524742
0.1015,-13.54440475832098,5.755377537567308,28.520937110817073,0.16980521689230202,0.8945970014121064,0.7693750893146596,31.82425308227539,-4.381292343139648,-7.026745407756607e-08,8.189261957738877,48.62893585455011,49.80426451877349,0.9609805345535278,0.2739624083042145,-0.036760032176971436,0.010479781776666641
0.10200000000000001,-13.97114869256912,5.796699670873272,28.403948281348097,0.17002971166423764,0.8940829084053621,0.7691748439756426,31.898828506469727,-4.405767440795898,1.0099817870923289e-08,8.203510006662263,48.61790657561396,49.7972461170509,0.9607941508293152,0.2745855152606964,-0.03695841506123543,0.010562351904809475
0.10250000000000001,-14.398352818065767,5.837769373062285,28.285761625788812,0.17025461305941125,0.8935671509290416,0.768973573829767,31.972793579101562,-4.4301557540893555,6.016971809685856e-08,8.217802042985063,48.606845191542305,49.79021467761044,0.9606087803840637,0.2752033472061157,-0.037156034260988235,0.010644775815308094
0.10300000000000001,-14.8260160962133,5.87857623403936,28.166369798556183,0.17048008579021065,0.8930497462773419,0.7687713176176774,32.046142578125,-4.454456329345703,-1.0837970876309555e-07,8.232145763248374,48.59574948791174,49.78317024569667,0.9604244828224182,0.2758159339427948,-0.03735288605093956,0.010727048851549625
0.10350000000000001,-15.25413719858073,5.919109890370776,28.045765514458957,0.17070628991399506,0.8925307115032748,0.7685681148481605,32.118892669677734,-4.478670120239258,-2.3093774004223633e-08,8.24654864994013,48.584617242905225,49.776112812276466,0.9602412581443787,0.27642330527305603,-0.0375489741563797,0.010809170082211494
0.10400000000000001,-15.682714510930497,5.959360035910245,27.923941554183745,0.17093338073804945,0.892010063378166,0.7683640057800825,32.1910400390625,-4.502798080444336,6.7129115599584566e-09,8.26101796690794,48.57344622759059,49.76904231261963,0.9600591659545898,0.2770255208015442,-0.03774430975317955,0.010891138575971127
0.1045,-16.11174613766995,5.999316432446206,27.80089076965861,0.17116150873152164,0.8914878183511961,0.7681590314043687,32.26258087158203,-4.526839733123779,-1.818190931146546e-08,8.275560755085198,48.56223420614322,49.76195862491269,0.959878146648407,0.2776225805282593,-0.03793888911604881,0.010972946882247925
0.105,-16.541229906712932,6.038968920350987,27.676606089285965,0.17139081944436207,0.8909639925090069,0.7679532334260357,32.33352279663086,-4.550796031951904,-9.762852926087362e-08,8.290183828532552,48.550978936014104,49.7548615689065,0.9596980810165405,0.2782144546508789,-0.038132719695568085,0.011054594069719315
0.1055,-16.9711633747361,6.078307429212258,27.55108052303696,0.17162145343327942,0.8904386015354365,0.7677466542462764,32.40386199951172,-4.5746660232543945,-1.3622498329368682e-07,8.304893770796182,48.53967816804524,49.747750904599286,0.95951908826828,0.27880120277404785,-0.038325801491737366,0.011136077344417572
0.106,-17.401543832814294,6.117321988427375,27.424307167400173,0.17185354619470858,0.8899116606714261,0.7675393369446103,32.47361755371094,-4.598452091217041,1.670970561917784e-07,8.319696931583819,48.528329646534154,49.74062633095592,0.959341287612915,0.2793828845024109,-0.03851814568042755,0.011217396706342697
0.1065,-17.832368312419014,6.156002737740984,27.296279210177413,0.17208722810478636,0.8893831846751317,0.7673313252610999,32.54277420043945,-4.622152805328369,-9.127539613018598e-09,8.334599423759371,48.516931109248716,49.7334874846641,0.959164559841156,0.27995947003364563,-0.03870975598692894,0.011298543773591518
0.107,-18.263633591763508,6.194339937706345,27.166989935120192,0.17232262436631055,0.8888531877822982,0.7671226635786513,32.61133575439453,-4.645769119262695,-6.434717647607613e-08,8.349607120655952,48.50548028739434,49.726333938928605,0.9589888453483582,0.28053098917007446,-0.03890063241124153,0.01137951947748661
0.1075,-18.695336202477762,6.23232398005092,27.03643272640089,0.17255985496265944,0.8883216836669203,0.7669133969053964,32.679317474365234,-4.6693034172058105,-4.548363108369813e-08,8.364725653707483,48.49397490553472,49.71916520230384,0.9588143229484558,0.28109750151634216,-0.03909078985452652,0.011460323818027973
0.108,-19.127472436596268,6.269945397926754,26.904601072912865,0.17279903461862944,0.8877886854022374,0.7667035708571734,32.746707916259766,-4.692753791809082,-9.17026667934806e-08,8.379960410397892,48.48241268146775,49.71198071756571,0.9586407542228699,0.28165897727012634,-0.03928022086620331,0.011540951207280159
0.1085,-19.560038353841318,6.3071948760264105,26.77148857239429,0.17304027276814563,0.8872542054221003,0.7664932316401154,32.81352233886719,-4.716122627258301,4.115933194270838e-08,8.395316532526916,48.47079132605826,49.70477986062293,0.9584683775901794,0.2822154760360718,-0.03946894407272339,0.011621402576565742
0.109,-19.993029789184074,6.344063260545404,26.637088935371395,0.17328367352878776,0.886718255482733,0.7662824260333571,32.87975311279297,-4.73940896987915,-1.9217300462059939e-07,8.410798914790927,48.459108543028385,49.697561939468116,0.9582971334457397,0.28276702761650085,-0.03965695947408676,0.011701672337949276
0.1095,-20.426442360665597,6.380541568972073,26.501395988916542,0.17352933568306564,0.8861808466249369,0.7660712013718672,32.94540023803711,-4.762612819671631,-3.7046270051632746e-08,8.426412203676838,48.447362028707644,49.690326193169405,0.9581268429756165,0.2833136022090912,-0.039844267070293427,0.011781762354075909
0.11,-20.860271477459722,6.416620999686458,26.36440368021781,0.17377735266636984,0.8856419891367531,0.7658596055294309,33.01047134399414,-4.785736083984375,6.023734044902085e-08,8.442160796666665,48.435549471743194,49.683071790901806,0.9579576849937439,0.28385525941848755,-0.04003087803721428,0.011861667968332767
0.1105,-21.294512348159458,6.452292941349638,26.226106079956793,0.1740278125615132,0.88510169251662,0.7656476869017833,33.07497024536133,-4.808780670166016,4.784071361285669e-09,8.458048841749921,48.42366855277185,49.675797831019196,0.9577897191047668,0.28439202904701233,-0.04021681100130081,0.011941390112042427
0.111,-21.729159989268283,6.487548982065581,26.08649738549217,0.17428079809977237,0.8845599654370532,0.7654354943899189,33.1389045715332,-4.831746578216553,-1.457955356443108e-08,8.474080237240653,48.41171694405488,49.668503340166446,0.9576228857040405,0.2849239408969879,-0.04040205851197243,0.012020925991237164
0.1115,-22.16420923387785,6.5223809182977845,25.945571923846828,0.1745363866683267,0.8840168157088563,0.7652230773835886,33.202266693115234,-4.854633331298828,-1.4154616678752063e-07,8.490258631895424,48.39969230907605,49.661187272431,0.9574571251869202,0.2854509949684143,-0.04058663547039032,0.012100274674594402
0.112,-22.599654740513007,6.556780763523428,25.80332415449719,0.17479465032398758,0.8834722502459046,0.7650104857450029,33.26505661010742,-4.877440452575684,2.719745850754407e-08,8.506587425328197,48.38759230210445,49.65384850853447,0.957292377948761,0.2859731614589691,-0.040770530700683594,0.012179432436823845
0.1125,-23.0354910021255,6.590740756608193,25.659748671963698,0.17505565581310056,0.8829262750305076,0.7647977697927565,33.32728576660156,-4.900171756744385,-1.0685656803843813e-07,8.523069768717686,48.375414567722395,49.646485855063126,0.9571288824081421,0.2864905595779419,-0.040953777730464935,0.01225840114057064
0.113,-23.47171235521682,6.624253369885364,25.514840208202084,0.17531946459749517,0.8823788950793693,0.7645849802860013,33.38895797729492,-4.922826766967773,-1.233185287219385e-07,8.5397085658023,48.36315674031904,49.63909804373665,0.9569665193557739,0.28700315952301025,-0.04113636910915375,0.01233717892318964
0.1135,-23.908312989071515,6.657311316923307,25.36859363479551,0.17558613288635166,0.8818301144101598,0.7643721684088782,33.45005416870117,-4.945404529571533,9.456314842282154e-08,8.556506474157485,48.35081644355038,49.63168373071482,0.9568051099777222,0.2875109612941742,-0.04131830483675003,0.012415763922035694
0.114,-24.345286955081328,6.689907559966016,25.22100396494844,0.175855711673845,0.8812799360087163,0.7641593857552362,33.5106086730957,-4.9679083824157715,5.22346219611336e-08,8.57346590674987,48.338391289766044,49.62424149594094,0.9566449522972107,0.2880140542984009,-0.041499607264995575,0.012494155205786228
0.1145,-24.782628176141056,6.722035317031859,25.072066355283326,0.17612824678242095,0.8807283617968759,0.7639466843136575,33.57060241699219,-4.9903388023376465,-5.211592934983855e-08,8.590589033762278,48.32587887940317,49.6167698425214,0.95648592710495,0.2885124087333679,-0.04168028011918068,0.012572351843118668
0.115,-25.220330456096764,6.753688068656364,24.921776107442025,0.17640377891155104,0.8801753926009567,0.7637341164528125,33.63003921508789,-5.012694835662842,4.168905576307225e-08,8.607877784683271,48.31327680034771,49.60926719614009,0.9563280344009399,0.2890060245990753,-0.04186032712459564,0.012650352902710438
0.1155,-25.658387489227156,6.784859564265374,24.770128669494216,0.17668234369180685,0.8796210281208756,0.7635217349071662,33.688926696777344,-5.034978866577148,-1.5147237775181566e-07,8.62533385065463,48.30058262726288,49.601731904506316,0.9561712741851807,0.28949496150016785,-0.04203975945711136,0.01272815652191639
0.116,-26.096792869738636,6.815543828165646,24.61711963715586,0.17696397174408868,0.8790652668999348,0.7633095927630648,33.74726104736328,-5.057188510894775,-1.618288081317587e-08,8.642958687069621,48.28779392088566,49.59416223683566,0.9560155272483826,0.2899791896343231,-0.04221857339143753,0.012805762700736523
0.1165,-26.535540101255126,6.845735165140491,24.462744754821184,0.17724868874383803,0.8785081062952507,0.7630977434452237,33.8050537109375,-5.079329013824463,-2.3158875706030813e-08,8.66075351641495,48.274908227290304,49.5865563833616,0.9558610320091248,0.2904588282108307,-0.04239679127931595,0.012883172370493412
0.117,-26.974622606282935,6.875428165638884,24.30699991641193,0.17753651549005445,0.8779495424488352,0.7628862407036413,33.862300872802734,-5.101398944854736,-7.771294718850186e-08,8.678719331348569,48.26192307711941,49.57891245487688,0.9557076692581177,0.2909338176250458,-0.04257441684603691,0.012960382737219334
0.11750000000000001,-27.414033735632596,6.904617710547021,24.149881166048775,0.1778274679789372,0.877389570259335,0.7626751386009725,33.919002532958984,-5.123397350311279,1.3043775837218163e-08,8.69685689800549,48.248835984782104,49.571228482302956,0.9555553197860718,0.29140418767929077,-0.04275144264101982,0.013037391938269138
0.11800000000000001,-27.85376677777759,6.933298975532196,23.99138469854974,0.17812155748196187,0.8768281833544103,0.7624644915003771,33.97516632080078,-5.145328521728516,9.149627544502437e-08,8.71516675952335,48.23564444761916,49.56350241628589,0.9554042220115662,0.29186996817588806,-0.04292789846658707,0.013114203698933125
0.11850000000000001,-28.293814968132043,6.961467434949392,23.831506859761078,0.1784187906282017,0.8762653740637589,0.7622543540538815,34.03078842163086,-5.167191505432129,5.376499601084106e-08,8.7336492397792,48.22234594503458,49.55573212681698,0.9552542567253113,0.29233115911483765,-0.04310378059744835,0.01319081149995327
0.11900000000000001,-28.734171498228406,6.989118865302026,23.6702441467271,0.17871916949069486,0.8757011333927596,0.7620447811912728,34.085872650146484,-5.1889872550964355,2.8261030848852897e-08,8.75230444732878,48.208937937593134,49.547915402875766,0.9551054239273071,0.2927878201007843,-0.043279096484184265,0.013267219066619873
0.11950000000000001,-29.17482952477671,7.016249348248796,23.507593207704996,0.17902269167665816,0.8751354509967524,0.7618358281095556,34.14042282104492,-5.210716247558594,1.6713512707156042e-07,8.771132279539184,48.19541786608387,49.54004995209466,0.9549577236175537,0.29323992133140564,-0.04345385730266571,0.01334342546761036
0.12,-29.61578217858711,7.0428552731495655,23.3435508420322,0.17932935042134204,0.8745683151559175,0.7616275502629984,34.194435119628906,-5.232378005981445,1.2596557041888445e-07,8.790132426905702,48.18178315054866,49.53213340044195,0.9548110961914062,0.29368749260902405,-0.043628059327602386,0.01341942511498928
0.1205,-30.05702257333798,7.06893333914388,23.178113999853384,0.17963913468531856,0.8739997127507546,0.761420003353798,34.24791717529297,-5.2539753913879395,8.960766706422874e-08,8.809304377543329,48.16803118927523,49.524163291921894,0.9546656608581543,0.2941305935382843,-0.043801724910736084,0.013495225459337234
0.121,-30.49854381417148,7.094480556756554,23.011279781715547,0.17995202925499185,0.873429629238142,0.7612132433233849,34.300880432128906,-5.275509357452393,-7.175118810209824e-08,8.828647421843327,48.15415935775444,49.51613708828952,0.9545213580131531,0.2945692241191864,-0.0439748540520668,0.013570820912718773
0.1215,-30.94033900609939,7.119494249025674,22.84304543803906,0.1802680148461162,0.8728580486279659,0.761007326344396,34.35331726074219,-5.296978950500488,-1.1377979802773552e-07,8.848160657284854,48.140165007601176,49.508052168778335,0.9543781876564026,0.29500341415405273,-0.04414745420217514,0.013646213337779045
0.122,-31.382401262202134,7.14397205214896,22.673408368473915,0.1805870682101061,0.8722849534602947,0.7608023088133465,34.40522003173828,-5.318386077880859,-5.1041366688764356e-09,8.867842993391719,48.12604546543798,49.499905829838156,0.9542362093925476,0.2954331338405609,-0.04431953281164169,0.013721401803195477
0.1225,-31.82472371160392,7.167911915645477,22.502366121150132,0.18090916224291925,0.8717103247830883,0.760598247344016,34.456607818603516,-5.339731693267822,-3.938333215103285e-09,8.887693156824026,48.11179803174129,49.491695284881416,0.9540953636169434,0.2958584427833557,-0.04449109733104706,0.013796384446322918
0.123,-32.26729950720799,7.191312102030398,22.3299163918319,0.18123426609629212,0.8711341421304142,0.7603951987615826,34.50747299194336,-5.361015319824219,-7.589902395466197e-08,8.907709696594349,48.097419979649246,49.4834176640352,0.9539556503295898,0.29627934098243713,-0.04466215521097183,0.013871162198483944
0.1235,-32.710121833175464,7.214171186001374,22.156057022985312,0.1815623452911058,0.870556383501162,0.7601932200975192,34.55782699584961,-5.38223934173584,9.479714790927574e-09,8.927890989397975,48.08290855373111,49.47507001389724,0.9538171887397766,0.29669588804244995,-0.04483271390199661,0.013945735059678555
0.124,-33.153183912132775,7.236488053135819,21.980786002769964,0.1818933618326602,0.869977025338223,0.7599923685852807,34.6076545715332,-5.403402328491211,-8.165576304008937e-08,8.948235245046687,48.06826096871725,49.466649297293046,0.9536798000335693,0.2971080541610718,-0.0450027734041214,0.014020099304616451
0.1245,-33.596479012091734,7.258261898099458,21.804101463964816,0.18222727432763164,0.8693960425081242,0.7597927016568028,34.65696716308594,-5.424506187438965,-1.0732705391092168e-08,8.968740511995357,48.05347440818951,49.458152393032236,0.9535435438156128,0.2975158393383026,-0.04517234489321709,0.014094256795942783
0.125,-34.04000045306825,7.279492222366983,21.626001682839146,0.18256403810248967,0.8688134082810883,0.7595942769398257,34.70576858520508,-5.445550918579102,-6.062026614017668e-08,8.989404682950623,48.038546023231596,49.44957609566156,0.953408420085907,0.29791930317878723,-0.04534143581986427,0.01416820753365755
0.1255,-34.48374161338485,7.300178831456753,21.446485077979514,0.18290360532315,0.8682290943114993,0.759397152256066,34.75406265258789,-5.466537952423096,1.243866307731878e-07,9.010225500550963,48.02347293103897,49.44091711521251,0.9532744884490967,0.29831844568252563,-0.045510049909353256,0.014241950586438179
0.126,-34.92769593564349,7.320321831682267,21.265550209084044,0.18324592511563845,0.867643070618754,0.759201385620253,34.801841735839844,-5.4874677658081055,6.724668821789237e-08,9.03120056310719,48.00825221348815,49.43217207694105,0.9531416893005371,0.2987132966518402,-0.04567819461226463,0.014315484091639519
0.1265,-35.37185693235551,7.339921626423695,21.08319577573552,0.1835909436875421,0.8670553055684733,0.7590070352400411,34.849117279052734,-5.508340835571289,-1.886556333374756e-07,9.052327330392636,47.9928809156652,49.42333752105748,0.9530100226402283,0.29910385608673096,-0.045845877379179,0.014388807117938995
0.127,-35.81621819121561,7.358978911923982,20.89942061616468,0.18393860445002713,0.8664657658540492,0.7588141595168099,34.895877838134766,-5.529156684875488,-8.414413343871274e-08,9.073603129472177,47.97735604435315,49.4144099024439,0.9528794884681702,0.29949015378952026,-0.04601309821009636,0.014461922459304333
0.1275,-36.26077338000821,7.37749467261435,20.714223706015822,0.18428884814020136,0.8658744164785146,0.7586228170473667,34.942138671875,-5.549917221069336,1.7524310128025355e-11,9.095025160559308,47.96167456647874,49.405385590357604,0.9527500867843628,0.29987218976020813,-0.0461798720061779,0.014534828253090382
0.128,-36.70551625113429,7.395470175975193,20.527604157126333,0.18464161294360285,0.8652812207367031,0.7584330666265514,34.9879035949707,-5.570624351501465,-2.138385468697379e-08,9.116590502890473,47.94583340751839,49.396260868118055,0.9526219964027405,0.30025002360343933,-0.04634620249271393,0.014607523567974567
0.1285,-37.150440645748255,7.412906966938847,20.339561216332157,0.1849968346165968,0.8646861401976796,0.7582449672507553,35.033164978027344,-5.591276168823242,-1.707368113557095e-07,9.138296120606006,47.929829449863576,49.38703193277534,0.9524949193000793,0.3006236255168915,-0.04651208966970444,0.014680006541311741
0.129,-37.595540497493985,7.429806861841586,20.15009426431119,0.18535444660846434,0.8640891346874328,0.7580585781223562,35.07792663574219,-5.611873626708984,-7.497348519791558e-09,9.160138868626806,47.913659531146365,49.37769489475865,0.9523690342903137,0.30099302530288696,-0.04667753726243973,0.014752278104424477
0.1295,-38.040809835831375,7.4461719419328025,19.95920281447631,0.18571438018297112,0.8634901622717909,0.7578739586550638,35.122196197509766,-5.632419109344482,7.286936920536391e-08,9.182115498516396,47.89732044252541,49.368245777502445,0.9522444009780884,0.30135825276374817,-0.046842560172080994,0.014824338257312775
0.13,-38.48624278894391,7.462004546450108,19.766886511930092,0.186076564539204,0.8628891792395619,0.7576911684801841,35.16596221923828,-5.652907848358154,1.7670515717327362e-07,9.204222664317628,47.88080892693316,49.358680517048974,0.9521207213401794,0.3017192482948303,-0.04700714349746704,0.014896179549396038
0.1305,-38.93183358621952,7.477307265269872,19.573145132493003,0.18644092693146824,0.8622861400858645,0.7575102674537858,35.2092399597168,-5.673348426818848,-5.746862541400333e-08,9.22645692835375,47.86412167728523,49.34899496162533,0.9519984126091003,0.30207616090774536,-0.047171320766210556,0.014967809431254864
0.131,-39.377576560296944,7.4920829311429795,19.37797858181689,0.18680739278804365,0.861680997495646,0.7573313156647687,35.25202178955078,-5.693734645843506,-1.1305657920956946e-07,9.248814766983648,47.847255334652885,49.33918487119366,0.9518771171569824,0.3024289011955261,-0.047335073351860046,0.015039224177598953
0.1315,-39.82346614867103,7.506334611526922,19.181386894595597,0.18717588582859854,0.8610737023273588,0.7571543734438191,35.2943115234375,-5.714068412780762,-1.6724843021620472e-07,9.271292576301171,47.830206486399824,49.32924591697301,0.9517569541931152,0.302777498960495,-0.04749841243028641,0.015110421925783157
0.132,-40.2694968948508,7.520065600025132,18.98337023388421,0.1875463281800668,0.8604642035968026,0.7569795013732381,35.33611297607422,-5.734352111816406,-8.933793083087949e-08,9.29388667776857,47.81297166428487,49.31917368093199,0.9516379833221436,0.30312198400497437,-0.047661345452070236,0.015181404538452625
0.1325,-40.71566344906499,7.533279407445807,18.78392889053851,0.18791864049079787,0.8598524484610953,0.7568067602976212,35.37742614746094,-5.754586219787598,5.414764103761627e-08,9.316593323774521,47.79554734253188,49.30896365525088,0.9515202641487122,0.3034623861312866,-0.04782388359308243,0.015252171084284782
0.133,-41.16196056851028,7.545979752492611,18.583063282785673,0.18829274204279237,0.859238382202776,0.7566362113353745,35.41825485229492,-5.774767875671387,1.8313905059130775e-08,9.339408703107118,47.77792993586849,49.298611241752035,0.9514036178588867,0.3037986755371094,-0.04798601195216179,0.015322715975344181
0.1335,-41.608383117138715,7.558170552100285,18.38077395593748,0.1886685508618449,0.8586219482140396,0.7564679158910383,35.45860290527344,-5.7949018478393555,2.1864282828687465e-08,9.362328946332624,47.76011579753625,49.28811175129873,0.9512882232666016,0.3041309416294098,-0.04814775288105011,0.015393043868243694
0.134,-42.054926064981,7.569855911428923,18.17706158225654,0.18904598382541643,0.8580030879810759,0.7563019356683878,35.49846267700195,-5.814984321594238,1.3339675319912203e-07,9.385350131071013,47.74210121727364,49.27746040316091,0.9511739015579224,0.3044591248035431,-0.0483090914785862,0.015463150106370449
0.1345,-42.5015844870031,7.58104011353084,17.971926960985936,0.18942495676806742,0.8573817410685296,0.7561383326842828,35.5378532409668,-5.835018634796143,5.869454966500598e-08,9.408468287159419,47.72388241927474,49.26665232434825,0.9510608315467834,0.30478328466415405,-0.04847005009651184,0.01553303562104702
0.135,-42.948353561495566,7.591727608704795,17.76537101855275,0.18980538458428842,0.856757845104066,0.7559771692832347,35.576744079589844,-5.855002403259277,-3.446513119342853e-08,9.431679401695115,47.70545556012569,49.255682548909725,0.9509487748146057,0.3051033914089203,-0.04863061383366585,0.015602696686983109
0.1355,-43.39522856799376,7.601923003552454,17.557394808954683,0.19018718132856885,0.8561313357630508,0.7558185081526385,35.61516571044922,-5.874937534332275,9.726840488610833e-08,9.454979423949764,47.68681672672231,49.244546017200435,0.9508379101753235,0.3054194748401642,-0.04879079386591911,0.01567213423550129
0.136,-43.84220488472961,7.611631049752592,17.34799951433964,0.1905702603125545,0.8555021467533432,0.7556624123386427,35.65311050415039,-5.894825458526611,-1.5184436108484078e-07,9.478364270146997,47.66796193417123,49.233237575115226,0.9507282972335815,0.3057315945625305,-0.04895060509443283,0.015741348266601562
0.1365,-44.28927798561597,7.620856632568976,17.13718644578696,0.19095453419914651,0.8548702098002127,0.755508945262604,35.690574645996094,-5.914663314819336,1.439408325865088e-08,9.5018298280957,47.64888712367793,49.221751973290026,0.9506197571754456,0.3060396909713745,-0.04911002889275551,0.01581033691763878
0.137,-44.736443436764816,7.6296047591079,16.92495704429901,0.19133991509340686,0.8542354546313783,0.7553581707380758,35.72757339477539,-5.934454917907715,2.139664889710957e-09,9.525371961671796,47.629588160425044,49.21008386627133,0.9505124688148499,0.30634385347366333,-0.04926908388733864,0.01587909832596779
0.1375,-45.18369689254218,7.63788054634213,16.7113128820112,0.19172631463013595,0.8535978089621933,0.7552101529882783,35.764095306396484,-5.954195976257324,-2.851176894580476e-08,9.548986515141495,47.6100608314446,49.198227811654924,0.9504062533378601,0.3066440224647522,-0.049427758902311325,0.015947628766298294
0.138,-45.63103409116288,7.645689208917995,16.496255663628023,0.1921136440580013,0.8529571984809834,0.755064956663998,35.800148010253906,-5.973891258239746,5.035850847434631e-08,9.572669317319344,47.59030084348775,49.18617826919486,0.9503012895584106,0.3069402575492859,-0.04958606883883476,0.016015931963920593
0.1385,-46.07845084982943,7.653036046762745,16.279787228092264,0.1925018143200999,0.8523135468345487,0.7549226468618484,35.83572006225586,-5.993537425994873,8.139920026906111e-08,9.59641618555501,47.570303820895894,49.17392959988385,0.9501973390579224,0.307232528924942,-0.049744002521038055,0.01608400233089924
0.139,-46.5259430594199,7.659926432509505,16.06190955049415,0.19289073613084654,0.8516667756138673,0.7547832891428341,35.87083435058594,-6.013137340545654,7.593792261673116e-09,9.620222929542692,47.55006530347787,49.161476065007335,0.9500946998596191,0.30752089619636536,-0.0499015748500824,0.01615183986723423
0.1395,-46.973506678730516,7.666365798757595,15.842624744226312,0.19328032004908513,0.8510168043399996,0.7546469495511471,35.90546798706055,-6.032688140869141,-8.872859780240105e-09,9.644085354947773,47.52958074439677,49.148811825172224,0.9499931335449219,0.30780529975891113,-0.05005877465009689,0.01621943898499012
0.14,-47.42113772827974,7.672359625185708,15.621935063390167,0.19367047654733227,0.8503635504502373,0.7545136946331271,35.93964385986328,-6.0521931648254395,1.4338560561100167e-07,9.667999266845525,47.50884550807152,49.135930939312985,0.9498928189277649,0.3080858290195465,-0.05021561682224274,0.016286807134747505
0.1405,-47.86883228368128,7.6779134255362935,15.3998429054586,0.1940611160770676,0.849706929284519,0.7543835914563112,35.97334289550781,-6.071648597717285,2.534693521738518e-08,9.691960472967143,47.48785486809777,49.12282736367729,0.9497935771942139,0.3083624243736267,-0.050372086465358734,0.01635393127799034
0.14100000000000001,-48.316586468593925,7.683032734488953,15.176350814199154,0.1944521491299939,0.8490468540721394,0.754256707628489,36.00658416748047,-6.091056823730469,7.263431456294711e-08,9.715964786748815,47.46660400519275,49.10949495079373,0.9496954679489136,0.3086351156234741,-0.05052819475531578,0.016420817002654076
0.14150000000000001,-48.76439644725766,7.687723094441302,14.951461482861554,0.19484348629519924,0.848383235918792,0.7541331113166968,36.03936767578125,-6.110421180725098,-4.080810072082386e-07,9.740008030179817,47.44508800516933,49.09592744842428,0.9495987296104431,0.3089040219783783,-0.05068395659327507,0.01648746430873871
0.14200000000000002,-49.2122584166255,7.691990042215442,14.725177757632329,0.19523503831216163,0.8477159837939804,0.7540128712660527,36.071678161621094,-6.129734516143799,-2.0874762185485451e-07,9.764086036446187,47.423301856944406,49.08211849850486,0.9495029449462891,0.3091689944267273,-0.05083933845162392,0.016553867608308792
0.14250000000000002,-49.66016859810191,7.695839095708624,14.497502641359128,0.19562671611954524,0.8470450045188405,0.7538960568183524,36.103538513183594,-6.1490020751953125,-1.1701506963390784e-07,9.7881946523669,47.40124045058706,49.06806163607725,0.9494084715843201,0.30943015217781067,-0.05099436640739441,0.016620026901364326
0.14300000000000002,-50.108123228898954,7.699275740506326,14.268439297546262,0.19601843089974463,0.8463702027544104,0.7537827379303426,36.134925842285156,-6.168220520019531,1.341308148994358e-07,9.812329740619765,47.378898575411526,49.053750288215475,0.949315071105957,0.30968740582466125,-0.051149025559425354,0.016685934737324715
0.14350000000000002,-50.55611855302239,7.702305416476372,14.037991054622333,0.19641009411914456,0.8456914809904018,0.7536729851915656,36.165855407714844,-6.187392711639404,3.105986579043929e-08,9.83648718175495,47.3562709181212,49.039177772951135,0.9492229223251343,0.3099408447742462,-0.05130333453416824,0.016751596704125404
0.14400000000000002,-51.00415081190053,7.704933504362304,13.806161410480586,0.19680161756407033,0.8450087395345153,0.7535668698416986,36.196327209472656,-6.206515312194824,-1.5346005000083096e-07,9.860662875994251,47.33335206100871,49.02433729820096,0.9491317868232727,0.31019043922424316,-0.05145727097988129,0.01681700348854065
0.1445,-51.45221623466937,7.707165312394594,13.572954037291197,0.19719291337241202,0.8443218765023548,0.7534644637872776,36.22635269165039,-6.225593566894531,-4.9713907657178424e-08,9.88485274481472,47.31013648021839,49.009221960701396,0.9490420818328857,0.31043627858161926,-0.05161086097359657,0.016882162541151047
0.145,-51.90031102812829,7.7090060629378305,13.33837278658446,0.19758389406091678,0.8436307878080005,0.7533658396177161,36.25590515136719,-6.2446208000183105,-5.409284753454813e-08,9.909052732315791,47.286618544076845,48.993824744954466,0.9489533305168152,0.31067824363708496,-0.051764074712991714,0.0169470626860857
0.1455,-52.348431366381305,7.710460879192306,13.102421694603027,0.1979744725481509,0.8429353671552754,0.7532710706205149,36.28500747680664,-6.263599395751953,-9.914325715953964e-08,9.933258806369464,47.26279251149714,48.97813852218909,0.9488657712936401,0.31091639399528503,-0.051916927099227905,0.017011703923344612
0.146,-52.79657338017952,7.711534771967918,12.865104987920486,0.1983645621731419,0.8422355060298012,0.7531802307955615,36.31365203857422,-6.28253173828125,2.88031003492506e-07,9.957466959553344,47.23865253046365,48.962156049343875,0.9487795233726501,0.31115075945854187,-0.052069421857595444,0.01707608811557293
0.1465,-53.24473314598094,7.712232626548521,12.626427089322995,0.19875407670972292,0.8415310936918668,0.7530933948684194,36.34183883666992,-6.301413536071777,6.32555838819826e-08,9.981673209867205,47.214192636602434,48.94586996807502,0.9486942291259766,0.31138134002685547,-0.052221544086933136,0.017140205949544907
0.147,-53.69290667474487,7.712559189664405,12.38639262394994,0.1991429303766046,0.8408220171702082,0.7530106383024977,36.36957931518555,-6.320247650146484,-6.828338428022107e-08,10.005873601233619,47.189406751844395,48.92927280379601,0.948610246181488,0.3116081655025482,-0.052373308688402176,0.01720406301319599
0.1475,-54.14108990047799,7.712519056590714,12.145006425688793,0.1995310378432161,0.8401081612567415,0.7529320373099982,36.3968620300293,-6.339033603668213,1.5530395103269257e-07,10.0300642037842,47.1642886831866,48.91235696475348,0.948527455329895,0.31183120608329773,-0.05252470821142197,0.017267653718590736
0.148,-54.589278668550335,7.712116658389016,11.902273543818712,0.19991831423135842,0.8393894085023295,0.7528576688615395,36.423702239990234,-6.3577704429626465,1.4575689988305385e-07,10.054241113933031,47.13883212155804,48.895114741145214,0.9484458565711975,0.3120504915714264,-0.05267573893070221,0.017330974340438843
0.1485,-55.037468723800146,7.711356249309477,11.658199249896631,0.2003046751127263,0.8386656392136559,0.7527876106943369,36.45008087158203,-6.3764567375183105,-1.605801855930622e-07,10.078400454239407,47.113030640796616,48.87753830428654,0.9483653903007507,0.3122659921646118,-0.052826400846242905,0.017394021153450012
0.149,-55.485655698445925,7.710241894370495,11.412789044878966,0.20069003650236297,0.8379367314512658,0.7527219413188488,36.47600555419922,-6.395092487335205,2.1139342720744025e-07,10.1025383730626,47.086877696742384,48.85961970583005,0.9482859969139099,0.312477707862854,-0.052976686507463455,0.017456796020269394
0.1495,-55.93383509982638,7.708777457132568,11.166048666471177,0.20107431484811947,0.8372025610288701,0.7526607400237709,36.501487731933594,-6.4136810302734375,-8.837722020871297e-08,10.126651044011481,47.06036662645444,48.84135087704588,0.9482080340385437,0.3126857280731201,-0.05312661454081535,0.01751929149031639
0.15,-56.38200229798741,7.706966587682845,10.917984096696971,0.20145742701619856,0.8364630015139629,0.7526040868792726,36.52650833129883,-6.432216167449951,1.596878149712211e-07,10.150734665192571,47.03349064755633,48.82272362816778,0.9481310248374939,0.3128899335861206,-0.05327615141868591,0.017581507563591003
0.1505,-56.8301525131372,7.7048127108466895,10.66860156967794,0.20183929027287328,0.835717924229852,0.7525520627383773,36.55108642578125,-6.45070219039917,1.5163918121174902e-08,10.174785458260217,47.006242857716806,48.803729647811686,0.9480553269386292,0.313090443611145,-0.053425319492816925,0.017643440514802933
0.151,-57.27828080299015,7.702319014641877,10.41790757961402,0.202219822262477,0.8349671982591705,0.7525047492363696,36.57521438598633,-6.4691362380981445,-9.170192072360805e-08,10.198799667273263,46.978616234271584,48.78436050247345,0.9479807019233704,0.3132871985435486,-0.053574103862047195,0.01770508661866188
0.1515,-57.726382050021094,7.699488438991289,10.165908888954155,0.20259894098177095,0.83421069044895,0.7524622287881328,36.59889602661133,-6.48751974105835,-2.8655185246861947e-07,10.222773557362828,46.95060363399173,48.7646076361117,0.9479073882102966,0.3134802579879761,-0.05372251570224762,0.017766445875167847
0.152,-58.17445094865127,7.696323664709208,9.912612536746265,0.20297656475080145,0.8334482654173411,0.7524245845833148,36.622127532958984,-6.505852222442627,7.991864237055779e-08,10.246703413216176,46.92219779300469,48.744462369822834,0.9478352665901184,0.3136695623397827,-0.0538705438375473,0.01782751828432083
0.1525,-58.62248199238789,7.692827102776083,9.65802584715448,0.20335261218036862,0.8326797855620606,0.7523919005792092,36.644901275634766,-6.524130344390869,1.3382642549686352e-08,10.27058553738221,46.89339132687361,48.72391590161464,0.9477642178535461,0.3138551115989685,-0.05401817709207535,0.01788829080760479
0.153,-59.070469460939904,7.689000883916443,9.40215643813146,0.20372700213623585,0.8319051110706426,0.7523642614912682,36.667236328125,-6.542357444763184,8.381078941965825e-08,10.294416248404362,46.864176730839894,48.70295930628504,0.9476944208145142,0.3140369951725006,-0.05416543409228325,0.01794877089560032
0.1535,-59.51840740733292,7.684846848493985,9.145012230232608,0.20409965370021355,0.8311240999325857,0.7523417527811339,36.689125061035156,-6.5605316162109375,1.658900572465427e-07,10.318191878787022,46.83454638023496,48.68158353541299,0.9476258754730225,0.31421512365341187,-0.05431229621171951,0.018008949235081673
0.154,-59.96628964504453,7.680366536737731,8.886601455558827,0.20447048612826296,0.8303366079534759,0.7523244606421043,36.710567474365234,-6.578652381896973,-3.497635603366689e-08,10.341908772802082,46.80449253106606,48.659779417468144,0.9475585222244263,0.31438955664634705,-0.05445876717567444,0.018068823963403702
0.1545,-60.41410973518515,7.675561179312713,8.6269326668135,0.20483941880576698,0.8295424887711574,0.7523124719819322,36.73154830932617,-6.5967183113098145,1.3441301405237027e-07,10.365563284142468,46.77400732078084,48.637537658045666,0.947492241859436,0.3145602345466614,-0.05460483580827713,0.018128393217921257
0.155,-60.86186097374539,7.670431688247985,8.366014746459236,0.20520637120012583,0.8287415938740512,0.7523058744028757,36.75209045410156,-6.6147308349609375,-5.189885854406384e-08,10.389151773429807,46.743082769215796,48.614848840233286,0.9474272727966309,0.314727246761322,-0.05475051328539848,0.01818765141069889
0.1555,-61.30953637893455,7.664978648234919,8.103856915959074,0.20557126281084023,0.8279337726216882,0.752304756178904,36.77219009399414,-6.632688045501709,1.1640882702224076e-09,10.412670605583887,46.71171077973302,48.59170342511706,0.9473633766174316,0.3148905336856842,-0.054895780980587006,0.018246600404381752
0.156,-61.75712867863304,7.659202308307636,7.840468745086564,0.20593401311724924,0.8271188722675448,0.7523092062299845,36.79184341430664,-6.650592803955078,2.580883773362075e-08,10.436116147061613,46.67988314054945,48.56809175243232,0.947300910949707,0.3150501549243927,-0.05504065752029419,0.018305236473679543
0.1565,-62.20463029798162,7.6531025739176375,7.575860161288612,0.2062945415240992,0.8262967379842586,0.752319314093365,36.81104278564453,-6.66843843460083,9.014301127763247e-08,10.459484762973702,46.64759152626268,48.5440040413664,0.9472394585609436,0.31520602107048035,-0.05518510937690735,0.018363550305366516
0.157,-62.65203334713139,7.646678999413834,7.310041459084431,0.20665276730512055,0.8254672128913009,0.7523351698917774,36.82979965209961,-6.686229228973389,-1.4275751425429917e-07,10.482772814087443,46.61482749957731,48.51943039151953,0.9471792578697205,0.3153581917285919,-0.05532916262745857,0.018421543762087822
0.1575,-63.099329609177055,7.639930780938955,7.043023309483764,0.20700860954480185,0.8246301380851849,0.7523568642984965,36.848106384277344,-6.7039642333984375,2.634495110953594e-08,10.505976653724334,46.581582513235006,48.49436078403001,0.9471203088760376,0.3155066668987274,-0.05547279864549637,0.01847921311855316
0.158,-63.546510528297446,7.632856749752856,6.774816769406834,0.20736198707854694,0.8237853526722828,0.7523844884991746,36.865970611572266,-6.721642017364502,1.846462005516969e-08,10.52909262456147,46.54784791215195,48.46878508287016,0.947062611579895,0.31565144658088684,-0.05561601743102074,0.018536552786827087
0.1585,-63.993567198125525,7.625455365992714,6.505433291088476,0.20771281843141215,0.8229326938043233,0.752418134150407,36.88337707519531,-6.739259719848633,9.662803890364557e-09,10.552117055345864,46.51361493576615,48.442693036318545,0.9470059275627136,0.3157925009727478,-0.05575880408287048,0.01859356090426445
0.159,-64.44049035037105,7.617724712879849,6.234884731448279,0.20806102175562077,0.822071996716646,0.7524578933349563,36.90035629272461,-6.7568230628967285,-2.1416595075152145e-07,10.575046257531127,46.4788747205976,48.41607427861479,0.9469507336616516,0.3159298896789551,-0.0559011809527874,0.01865023374557495
0.1595,-64.88727034371857,7.609662491382114,5.963183361408539,0.20840651476705935,0.8212030947692633,0.7525038585135932,36.916866302490234,-6.774324893951416,9.563609637552872e-08,10.59787652184629,46.44361830302314,48.38891833180201,0.9468965530395508,0.3160634934902191,-0.0560431182384491,0.018706567585468292
0.16,-65.33389715302324,7.601266015340767,5.69034187514154,0.20874921468095897,0.8203258194908235,0.7525561224735055,36.93294143676758,-6.791769027709961,4.2830222923839756e-08,10.620604114806222,46.40783662226865,48.36121460776313,0.9468437433242798,0.31619343161582947,-0.05618462711572647,0.018762558698654175
0.1605,-65.78036035882566,7.592532207069811,5.416373399227371,0.2090890381469727,0.8194400006255065,0.7526147782732309,36.94856262207031,-6.809152126312256,-1.8980738047957857e-07,10.643225275174034,46.37152052361948,48.332952410455384,0.9467920660972595,0.31631967425346375,-0.056325700134038925,0.0188182033598423
0.161,-66.22664913720851,7.583457593435763,5.141291501703543,0.20942590118386167,0.8185454661829326,0.752679919184086,36.96373748779297,-6.826476097106934,-3.1461917160413577e-07,10.665736210385454,46.33466076185085,48.30412093834876,0.9467416405677795,0.31644222140312195,-0.05646633356809616,0.01887350156903267
0.1615,-66.67275225001559,7.574038302424877,4.86511020098735,0.20975971911400043,0.81764204249113,0.7527516386280575,36.97846603393555,-6.843738555908203,1.5129091934795724e-07,10.688133092945321,46.297248004879094,48.27470928707255,0.9466924667358398,0.3165610432624817,-0.05660652369260788,0.018928449600934982
0.162,-67.11865803545486,7.564270060204873,4.587843974651934,0.21009040649792174,0.816729554252618,0.7528300301121311,36.99274444580078,-6.8609395027160645,8.960922315282005e-08,10.710412056806902,46.25927283763431,48.2447064522751,0.9466444849967957,0.31667613983154297,-0.056746263056993484,0.018983038142323494
0.1625,-67.56435439910523,7.554148188687297,4.309507768036814,0.2104178770691158,0.8158078246036453,0.7529151871590508,37.006568908691406,-6.878078460693359,-1.1377318998029295e-07,10.732569193744359,46.22072576615433,48.21410133270026,0.9465977549552917,0.3167875111103058,-0.056885555386543274,0.019037265330553055
0.163,-68.00982880534794,7.543667603596451,4.030117002673737,0.2107420436693053,0.8148766751766395,0.7530072032344916,37.01994323730469,-6.895155429840088,1.433136560535786e-07,10.754600549729103,46.18159722190031,48.182882733484966,0.9465523362159729,0.31689515709877014,-0.057024385780096054,0.019091129302978516
0.1635,-68.45506826924182,7.532822813050263,3.749687584508664,0.21106281818441194,0.8139359261658973,0.7531061716706422,37.032875061035156,-6.912168979644775,1.488575094299449e-07,10.776502121320567,46.1418775662931,48.15103936968153,0.9465081691741943,0.31699907779693604,-0.05716275796294212,0.01914462447166443
0.164,-68.9000593488618,7.521607916657981,3.4682359119006567,0.21138011148143993,0.8129853963965514,0.7532121855862085,37.04533767700195,-6.9291157722473145,-4.65598844201498e-11,10.798269852082422,46.10155709546933,48.118559870007466,0.9464650750160217,0.3170992434024811,-0.05730065703392029,0.019197745248675346
0.1645,-69.34478813811846,7.510016605139086,3.1857788833787,0.21169383334649142,0.8120249033968515,0.75332533780284,37.0573616027832,-6.946000576019287,-5.737021879781423e-08,10.819899629034722,46.06062604525634,48.085432780826565,0.946423351764679,0.31719571352005005,-0.057438094168901443,0.019250493496656418
0.165,-69.78924026007688,7.498042160467425,2.902333905137429,0.21200389242413603,0.811054263473775,0.7534457207580063,37.068931579589844,-6.962821006774902,-2.944105688129639e-07,10.841387279152945,46.019074596363595,48.051646570362976,0.9463829398155212,0.31728842854499817,-0.05757506191730499,0.019302861765027046
0.1655,-70.23340086079344,7.48567745654393,2.617918898253037,0.212310196158354,0.8100732917919906,0.7535734264143427,37.08004379272461,-6.979574203491211,-8.830598829945302e-08,10.862728565924781,45.97689287978887,48.01718963315114,0.946343719959259,0.31737738847732544,-0.05771154910326004,0.01935485005378723
0.166,-70.67725460368432,7.472914960400974,2.3325523056007222,0.21261265073526703,0.8090818024561943,0.7537085461654983,37.09070587158203,-6.996262073516846,5.2261050598190195e-08,10.883919185975287,45.93407098243673,47.98205029472321,0.9463058114051819,0.31746259331703186,-0.057847555726766586,0.019406449049711227
0.1665,-71.12078566444512,7.459746733940775,2.0462530984553466,0.212911161027877,0.8080796085968155,0.753851170738531,37.10091018676758,-7.012883186340332,3.348445076767348e-08,10.904954765771368,45.89059895294589,47.946216816535376,0.946269154548645,0.31754404306411743,-0.05798307806253433,0.019457656890153885
0.167,-71.56397772653378,7.446164436209937,1.7590407827572094,0.2132056305430221,0.8070665224591077,0.7540013900928925,37.110652923583984,-7.029433727264404,6.724985723849386e-08,10.925830858416084,45.84646680772269,47.909677401134324,0.9462336301803589,0.31762170791625977,-0.058118097484111786,0.019508469849824905
0.1675,-72.00681397723312,7.432159326211464,1.4709354050251353,0.21349596137076718,0.8060423554956101,0.7541592933160551,37.119956970214844,-7.045919895172119,-2.812642492244777e-07,10.946542940543768,45.80166453717652,47.872420197564516,0.9461995959281921,0.317695677280426,-0.05825263634324074,0.01955888420343399
0.168,-72.44927710430682,7.4177222662554305,1.1819575578994779,0.21378205413642815,0.805006918461981,0.7543249685158567,37.12879180908203,-7.06233549118042,6.444322053766882e-08,10.967086409325931,45.7561821121533,47.83443330701625,0.9461667537689209,0.31776583194732666,-0.0583866685628891,0.01960889995098114
0.1685,-72.89134929326056,7.402843725848589,0.892128385297944,0.21406380795544572,0.8039600215161797,0.7544985027096139,37.13715744018555,-7.078680038452148,1.4690471061840071e-07,10.987456579599073,45.71000949056244,47.79570478871492,0.9461351037025452,0.3178321421146393,-0.05852019041776657,0.01965850219130516
0.169,-73.33301222522172,7.3875137861231215,0.6014695871676478,0.21434112039130093,0.8029014743209818,0.7546799817101013,37.14507293701172,-7.094954967498779,1.597732790514783e-07,11.00764868112414,45.66313662419232,47.75622266605037,0.9461048245429993,0.31789469718933105,-0.05865320935845375,0.01970769464969635
0.1695,-73.77424707544861,7.37172214480389,0.3100034238171748,0.21461388741667387,0.8018310861497954,0.7548694900084609,37.152530670166016,-7.111160755157471,8.63887876789704e-08,11.027657855988146,45.61555346570918,47.71597493294586,0.946075975894928,0.3179534673690796,-0.05878571793437004,0.01975647173821926
0.17,-74.2150345124789,7.355458121713252,0.017752719812994453,0.2148820033780378,0.8007486659957489,0.7550671106541545,37.15951919555664,-7.127293109893799,2.3586119368701475e-07,11.047479156157802,45.5672499758337,47.67494956046475,0.9460482001304626,0.3180083930492401,-0.05891769751906395,0.019804829731583595
0.1705,-74.65535469792866,7.338710664811935,-0.2752591325749567,0.2151453609638736,0.7996540226840072,0.7552729251320448,37.16604995727539,-7.143353462219238,5.7672643549722125e-08,11.06710754119498,45.51821613068907,47.63313450365348,0.9460217952728271,0.318059504032135,-0.05904915928840637,0.019852763041853905
0.171,-75.09518728694881,7.321468356773983,-0.5690081703931202,0.21540385117668864,0.7985469649872697,0.7554870132367139,37.172115325927734,-7.1593403816223145,-3.201939762220718e-07,11.086537876143694,45.46844192931481,47.590517708618435,0.9459967017173767,0.3181068003177643,-0.05918009206652641,0.01990026794373989
0.1715,-75.53451142934819,7.3037194220932635,-0.8634698575035737,0.21565736330901608,0.7974273017443984,0.7557094529441443,37.17771530151367,-7.175254821777344,-7.812416669139566e-08,11.105764929597942,45.417917401338734,47.54708711983374,0.9459729790687561,0.31815025210380554,-0.059310492128133774,0.019947342574596405
0.17200000000000001,-75.97330577138912,7.285451734718504,-1.1586190825760811,0.2159057849235638,0.7962948419821132,0.75594032028087,37.18284606933594,-7.191093444824219,-2.7947632474933926e-07,11.124783371959655,45.366632614800885,47.502830687677275,0.9459505081176758,0.3181898593902588,-0.05944035202264786,0.01999397948384285
0.17250000000000001,-76.41154845826276,7.266652826213339,-1.4544301575856335,0.21614900183767496,0.7951493950396898,0.7561796891907352,37.187503814697266,-7.206856727600098,-2.3196544418624399e-07,11.143587773895486,45.314577684121545,47.45773637619086,0.9459292888641357,0.31822559237480164,-0.05956966057419777,0.020040174946188927
0.17300000000000001,-76.84921713724712,7.247309894437475,-1.750876816827508,0.21638689811226125,0.7939907706965891,0.7564276313993923,37.191707611083984,-7.2225470542907715,-2.965957435208111e-07,11.162172605001398,45.26174277820595,47.41179217106112,0.9459096193313599,0.31825751066207886,-0.059698436409235,0.020085928961634636
0.17350000000000002,-77.28628896155448,7.227409812744184,-2.0479322164611635,0.21661935604535143,0.7928187793029311,0.756684216276688,37.195430755615234,-7.238156795501709,-1.938362146347572e-07,11.180532232683039,45.20811812867747,47.364986087815836,0.9458910226821899,0.3182854950428009,-0.05982663854956627,0.020131230354309082
0.17400000000000002,-77.72274059486904,7.20693913968927,-2.3455689345935924,0.21684625617040246,0.7916332319127336,0.7569495106970773,37.19868087768555,-7.253690242767334,-1.4622702337874216e-07,11.198660921260313,45.15369403823124,47.3173061802315,0.9458738565444946,0.31830963492393494,-0.059954289346933365,0.020176079124212265
0.17450000000000002,-78.15854821657788,7.185884129245823,-2.6437589719119727,0.2170674772595027,0.7904339404198195,0.7572235788982304,37.20146560668945,-7.269147872924805,-1.8149144409562723e-07,11.216552831303607,45.09846088909952,47.26874054894643,0.9458581805229187,0.3183298707008362,-0.06008138507604599,0.020220471546053886
0.17500000000000002,-78.5936875276964,7.164230741518674,-2.9424737528747102,0.21728289633159426,0.7892207176962914,0.7575064823379873,37.203765869140625,-7.2845234870910645,-1.1681698453003264e-07,11.234202019209327,45.04240915162015,47.219277350273714,0.9458435773849487,0.31834614276885986,-0.06020789593458176,0.0202643983066082
0.17550000000000002,-79.0281337574887,7.141964653951905,-3.241684127469112,0.21749238866582998,0.7879933777334701,0.7577982795498356,37.20559310913086,-7.299820423126221,1.846268276040064e-07,11.251602437021582,44.98552939289883,47.16890480520768,0.9458304643630981,0.31835851073265076,-0.06033383682370186,0.020307859405875206
0.176,-79.46186167078044,7.119071273022246,-3.541360373543091,0.21769582782017227,0.7867517357851828,0.7580990259970779,37.206939697265625,-7.315038204193115,9.505316711511114e-08,11.268747932506857,44.92781228555629,47.11761120861751,0.9458187222480774,0.3183669447898865,-0.0604591965675354,0.020350845530629158
0.1765,-79.89484557596515,7.095535746410719,-3.8414721997175,0.2178930856553345,0.7854956085132775,0.758408773925878,37.20780563354492,-7.330173969268799,1.5361121086243656e-07,11.285632249488067,44.86924861655028,47.06538493862055,0.9458082914352417,0.31837141513824463,-0.060583967715501785,0.020393354818224907
0.177,-80.3270593336987,7.071342975644222,-4.141988748884716,0.21808403236415008,0.7842248141352502,0.7587275722173596,37.20819091796875,-7.345226764678955,1.150040418451681e-07,11.30224902844372,44.80982929606359,47.01221446612845,0.9457992315292358,0.3183719217777252,-0.060708146542310715,0.020435383543372154
0.1775,-80.75847636627931,7.046477629198359,-4.442878602298275,0.21826853650645153,0.7829391725738366,0.7590554662389606,37.208099365234375,-7.360198020935059,1.7672593344286724e-07,11.31859180737794,44.74954536644714,46.958088364557604,0.9457916021347046,0.31836846470832825,-0.06083172559738159,0.020476926118135452
0.178,-81.18906966770817,7.020924156052235,-4.74410978425744,0.2184464650495261,0.7816385056084453,0.7593924976952284,37.20751953125,-7.37508487701416,-1.0216787416084117e-07,11.334654022966344,44.68838801120903,46.902995319696196,0.9457852840423584,0.3183610141277313,-0.060954704880714417,0.020517976954579353
0.1785,-81.61881181442516,6.994666799685278,-5.045649767389551,0.21861768341421167,0.780322637028281,0.759738704478263,37.20645523071289,-7.389888763427734,2.2690882417464309e-07,11.350429011982692,44.62634856403885,46.846924139718915,0.9457803964614868,0.31834957003593445,-0.061077069491147995,0.020558536052703857
0.179,-82.04767497671268,6.9676896125058825,-5.34746547853217,0.2187820555266712,0.7789913927870082,0.7600941205180083,37.20490264892578,-7.404605865478516,2.404894416940806e-07,11.365910013010101,44.5634185178569,46.789863765340364,0.9457768797874451,0.31833410263061523,-0.061198823153972626,0.02059859409928322
0.1795,-82.47563093075973,6.93997647070081,-5.649523305216026,0.21893944387589737,0.7776446011588112,0.7604587756326036,37.20286178588867,-7.419238567352295,-2.2203886373972637e-07,11.381090168441272,44.499589533878385,46.73180328009804,0.9457747340202332,0.3183146119117737,-0.06131995469331741,0.02063814550638199
0.18,-82.90265107137851,6.911511089494,-5.951789102748754,0.21908970957696194,0.7762820928956732,0.7608326953790026,37.2003288269043,-7.433783531188965,1.2662236770211166e-07,11.395962526770557,44.43485345068142,46.672731920754906,0.9457739591598511,0.3182910978794098,-0.06144045665860176,0.020677193999290466
0.1805,-83.32870642536291,6.882277038802782,-6.254228201898492,0.21923271244003195,0.7749037013857283,0.7612159009040815,37.19729995727539,-7.448240756988525,2.497667708212248e-07,11.41052004518093,44.36920229326877,46.61263908781166,0.9457746148109436,0.3182635009288788,-0.06156032532453537,0.020715724676847458
0.181,-83.75376766547943,6.852257759278991,-6.556805417175541,0.21936831104515553,0.773509262812505,0.7616084087964512,37.19377899169922,-7.462608814239502,2.386683775057463e-07,11.424755592428266,44.30262828211241,46.551514356118226,0.945776641368866,0.31823185086250305,-0.06167955324053764,0.020753737539052963
0.1815,-84.1778051250787,6.821436578721891,-6.859485055709126,0.21949636282281312,0.7720986163148906,0.7620102309391966,37.18976974487305,-7.476888179779053,-3.4488840583435376e-07,11.438661952024875,44.23512384217022,46.48934748557394,0.9457800984382629,0.3181961476802826,-0.06179813668131828,0.020791225135326385
0.182,-84.60078881331495,6.789796728849402,-7.162230926715509,0.21961672414021008,0.7706716041476388,0.762421374363768,37.18525695800781,-7.491077899932861,1.2299049778619064e-08,11.45223182572341,44.166681611864135,46.42612843190513,0.9457849860191345,0.31815633177757263,-0.06191606819629669,0.020828189328312874
0.1825,-85.0226884309617,6.757321362413415,-7.465006351552652,0.21972925039329025,0.7692280718422391,0.7628418411052462,37.18023681640625,-7.50517463684082,-1.5807367503839487e-07,11.465457837302512,44.097294452009194,46.36184735750937,0.9457911849021912,0.3181123733520508,-0.062033332884311676,0.020864615216851234
0.183,-85.44347338680815,6.723993570644573,-7.767774174355491,0.2198337961044189,0.7677678683679563,0.7632716280592199,37.17472839355469,-7.519183158874512,-2.2699882151755446e-07,11.478332536653975,44.02695545468222,46.29649464235392,0.9457990527153015,0.3180643320083618,-0.06214994937181473,0.020900508388876915
0.1835,-85.8631128146222,6.689796401011311,-8.070496773245186,0.21993021502569426,0.7662908462928567,0.7637107268404915,37.168704986572266,-7.53309440612793,4.440871848032657e-08,11.490848404171961,43.95565795202008,46.23006089491753,0.9458081126213074,0.3180120885372162,-0.062265876680612564,0.02093585580587387
0.184,-86.28157559066491,6.654712875277423,-8.373136072104524,0.2200183602478129,0.7647968619446216,0.7641591236438534,37.16218566894531,-7.546914577484131,-1.6314643858095224e-07,11.502997855442983,43.883395524936255,46.162536963162715,0.9458187222480774,0.31795573234558105,-0.06238113343715668,0.020970653742551804
0.1845,-86.69883035173888,6.6187260078418815,-8.675653552910688,0.22009808431442107,0.7632857755709561,0.7646167991071594,37.155155181884766,-7.56063985824585,-5.7568620093206846e-08,11.514773246235857,43.810162011745554,46.093913945526644,0.945830762386322,0.31789517402648926,-0.06249570846557617,0.021004904061555862
0.185,-87.11484551375436,6.581818824344125,-8.978010268615769,0.22016923934186144,0.7617574514993927,0.7650837281769219,37.147613525390625,-7.574270248413086,1.6016079484870716e-07,11.52616687778977,43.73595151668622,46.02418320191796,0.945844292640686,0.3178304433822632,-0.06260959059000015,0.021038595587015152
0.1855,-87.52958929079499,6.543974380517472,-9.280166856564344,0.2202316771442163,0.7602117582962858,0.7655598799766736,37.139564514160156,-7.587803363800049,-1.9289051067516993e-07,11.537171002398086,43.6607584183288,45.95333636470662,0.9458591938018799,0.31776151061058044,-0.06272277981042862,0.021071724593639374
0.186,-87.94302971466345,6.505175781272897,-9.58208355243654,0.22028524936353872,0.7586485689247994,0.7660452176783137,37.13100051879883,-7.60123872756958,8.322384559278362e-08,11.547777829285211,43.58457737786185,45.8813653496943,0.9458755850791931,0.31768834590911865,-0.06283525377511978,0.02110428549349308
0.1865,-88.35513465488977,6.4654061999947645,-9.88372020470395,0.22032980760514773,0.7570677609016743,0.7665396983766781,37.12191390991211,-7.614575386047363,9.979034842899637e-08,11.557979530773002,43.507403347243766,45.808262367051384,0.9458933472633362,0.3176109194755554,-0.06294701248407364,0.021136272698640823
0.187,-88.76587183917965,6.424648898029731,-10.185036289585009,0.22036520357785747,0.7554692164525773,0.7670432729675515,37.11231994628906,-7.627813816070557,-1.0133241090670708e-07,11.567768248732964,43.42923157721101,45.734019932208525,0.9459126591682434,0.31752926111221313,-0.06305806338787079,0.021167682483792305
0.1875,-89.17520887428442,6.382887244349524,-10.485990926485494,0.2203912892389915,0.7538528226658187,0.7675558860293599,37.10220718383789,-7.640953540802002,8.129300255177441e-08,11.577136101319455,43.350057625132514,45.65863087668807,0.9459335803985596,0.3174433410167694,-0.06316839158535004,0.021198512986302376
