Time,Gyro_X,Gyro_Y,Gyro_Z,Acc_X,Acc_Y,Acc_Z,Euler_X,Euler_Y,Euler_Z,Tilt_X,Tilt_Y,Tilt_Z,Quat_W,Quat_X,Quat_Y,Quat_Z
0.0,34.46793544859268,7.0297447294837285,27.035059095976965,0.0002530239952999953,0.4840505105382309,0.9647024244072534,0.14569191634655,0.00343053275719285,6.13491368817165e-10,0.013431658298049567,26.645733510570288,26.64573743821292,0.9999991655349731,0.0012714015319943428,2.9937024009996094e-05,-3.805665471645625e-08
0.0005,34.4647112720366,7.028757370175354,27.03465678572318,0.00026594445619761457,0.48405001133063097,0.9647070581487268,0.29071077704429626,0.0068074860610067844,-1.897941137585235e-09,0.014117483541383464,26.645599427253963,26.64560376624535,0.9999968409538269,0.0025369273498654366,5.940633127465844e-05,-1.5072659209636186e-07
0.001,34.45559759090474,7.027138352125531,27.033867314820498,0.00029041816881401997,0.48406384428089905,0.9647207886447662,0.4350580871105194,0.010127822868525982,-1.1025268892295159e-10,0.015416390246178071,26.645928702110652,26.64593387622319,0.9999927878379822,0.003796589095145464,8.838129724608734e-05,-3.3555085110492655e-07
0.0015,34.44059875497075,7.024887513032667,27.03269030428472,0.00032645746362141426,0.4840919719854779,0.964743601884026,0.5787355303764343,0.013388530351221561,-1.115203485113625e-09,0.017328949341130565,26.646719835979514,26.646726373393555,0.9999873042106628,0.005050398409366608,0.00011683547927532345,-5.900829478378e-07
0.002,34.41972259844649,7.02200504132086,27.03112621901347,0.00037406977719088607,0.48413434672625366,0.9647754782967766,0.7217442989349365,0.016586599871516228,-8.25314330765714e-11,0.019855422705944422,26.64797092569545,26.647979508034084,0.9999801516532898,0.006298366002738476,0.0001447425311198458,-9.116602655012684e-07
0.0025,34.39298042878882,7.0184914779844645,27.029176360133174,0.00043325767596710205,0.4841909104750638,0.9648163927407617,0.8640862703323364,0.019719058647751808,-1.96938110264e-09,0.022995764741142656,26.649679665154807,26.649691176438402,0.9999716281890869,0.007540503516793251,0.00017207635391969234,-1.2975963272765512e-06
0.003,34.36038701125461,7.014347718272093,27.026842855875735,0.00050401888552561,0.4842615949095069,0.9648663144910539,1.0057626962661743,0.022782932966947556,-8.596204859045997e-10,0.02674962436852899,26.6518433469815,26.65185892237173,0.9999614953994751,0.008776822127401829,0.00019881095795426518,-1.745003146425006e-06
0.0035,34.321960549232145,7.009575013207607,27.024128650997394,0.0005863463252373669,0.48434632144001544,0.9649252072339236,1.1467753648757935,0.025775300338864326,-2.499199514005568e-09,0.031116347457083617,26.65445886478904,26.6544799389938,0.9999499917030334,0.010007335804402828,0.00022492064454127103,-2.2509907466883305e-06
0.004,34.27772266038362,7.004174970945115,27.02103749475436,0.0006802281482560366,0.484445001248144,0.9649930290647205,1.287125587463379,0.028693219646811485,4.6290715705055163e-10,0.03609497966815127,26.65752271603346,26.657551071246353,0.9999368786811829,0.011232053861021996,0.0002503798168618232,-2.812452976286295e-06
0.0045000000000000005,34.2276983486399,6.998149557954646,27.017573927453167,0.0007856477867349049,0.48455753533600315,0.9650697324897518,1.426815152168274,0.031533822417259216,-6.632068227929722e-10,0.041684269712878,26.6610310054509,26.66106881870172,0.9999224543571472,0.012450989335775375,0.0002751631836872548,-3.426325292821275e-06
0.005,34.17191597209528,6.991501100034494,27.013743265594783,0.0009025840021718979,0.484683814586755,0.965155264432175,1.5658456087112427,0.03429423272609711,-5.259982449601353e-10,0.04788267301397865,26.66497944907133,26.665029338867246,0.999906599521637,0.013664156198501587,0.00029924570117145777,-4.08932646678295e-06
0.0055,34.110407206856756,6.98423228314593,27.00955158563533,0.0010310109407729773,0.48482371983607714,0.965249566241887,1.7042186260223389,0.03697161003947258,-3.521993807709123e-10,0.054688355763063086,26.669363378799947,26.66942845094081,0.9998893737792969,0.014871565625071526,0.00032260248553939164,-4.798137979378225e-06
0.006,34.04320700690773,6.976346154065412,27.005005706387838,0.0011708981937162922,0.48497712195447823,0.9653525737094204,1.841935634613037,0.039563145488500595,-1.6032485061767687e-10,0.062099199363923906,26.674177747555408,26.67426164001077,0.999870777130127,0.016073226928710938,0.0003452089731581509,-5.549340585275786e-06
0.006500000000000001,33.97035356005314,6.967846120848983,27.000113170092057,0.0013222108621917961,0.4851438819403395,0.9654642170838311,1.9789979457855225,0.0420660600066185,-2.71049682698532e-10,0.07011280525139085,26.67941713495354,26.67952406169369,0.9998508095741272,0.017269155010581017,0.0003670408914331347,-6.339434094115859e-06
0.007,33.891888240018744,6.958735953103161,26.99488222218157,0.0014849096270836296,0.4853238510235464,0.9655844210945831,2.1154074668884277,0.044477611780166626,2.0053256277741127e-10,0.07872650007458785,26.68507575352394,26.685210547202093,0.9998295307159424,0.018459362909197807,0.00038807428791187704,-7.1648237280896865e-06
0.0075,33.807855554782655,6.949019782056168,26.98932178978013,0.001658950823155397,0.4855168707795473,0.9657131049774244,2.2511661052703857,0.046795107424259186,-2.9430162751253874e-09,0.08793734123269036,26.69114745544524,26.6913156088336,0.9998070597648621,0.019643865525722504,0.00040828550118021667,-8.021878784347791e-06
0.008,33.718303091224236,6.9387021004230105,26.983441458960737,0.001844286517591549,0.48572277325367774,0.9658501825042416,2.386274576187134,0.04901581257581711,1.7420310749471923e-09,0.09774212275057506,26.6976257397846,26.69783344587261,0.9997830390930176,0.020822668448090553,0.0004276509571354836,-8.906751645554323e-06
0.0085,33.62328145617964,6.927787762057436,26.97725145080368,0.002040864592741479,0.4859413810955642,0.965995562016898,2.520735502243042,0.051137153059244156,-1.6944829983600584e-09,0.10813738148108311,26.704503760225023,26.704757950894194,0.9997580051422119,0.021995792165398598,0.00044614786747843027,-9.815766134124715e-06
0.009000000000000001,33.52284421399989,6.91628198138364,26.97076259629174,0.002248628832906588,0.48617250770341564,0.9661491464650395,2.6545495986938477,0.053156472742557526,-8.687278327257353e-12,0.11911940361998222,26.711774333263904,26.712082716459953,0.9997316002845764,0.023163242265582085,0.0004637532983906567,-1.0744914106908254e-05
0.0095,33.41704782071198,6.9041903326001,26.963986310082678,0.0024675190150045124,0.48641595737799426,0.9663108334478689,2.787719249725342,0.05507123842835426,-2.5147854909590706e-09,0.130684231519116,26.719429946864746,26.719801042194238,0.9997040629386902,0.024325037375092506,0.00048044498544186354,-1.1690323844959494e-05
0.01,33.3059515548885,6.891518748647751,26.956934563201468,0.0026974710029389155,0.4866715254860438,0.966480515259872,2.920245409011841,0.056878890842199326,-9.758146513050292e-10,0.1428276707826664,26.7274627695433,26.727905942228862,0.9996752142906189,0.02548118494451046,0.0004962008097209036,-1.2647900803131051e-05
0.0105,33.18961744533737,6.878273519934446,26.949619854696298,0.0029384168454978706,0.4869389986329506,0.9666580789404907,3.0521292686462402,0.05857697129249573,1.2042658537048112e-10,0.1555452976309402,26.73586465986884,26.736390153003818,0.9996451735496521,0.026631701737642288,0.0005109991761855781,-1.3613606824947055e-05
0.011,33.068110195725275,6.8644612928074125,26.942055182304607,0.0031902848775986286,0.48721815484438663,0.9668434063277295,3.1833741664886475,0.06016302481293678,-1.1080217854342322e-09,0.16883246651560763,26.744627176359966,26.74524614141048,0.9996140599250793,0.027776602655649185,0.0005248188390396535,-1.4583321899408475e-05
0.0115,32.94149710625627,6.850089067765279,26.934254012177202,0.0034529998246920187,0.4875087637566897,0.9670363741156861,3.3139808177948,0.061634644865989685,-2.792802211715184e-09,0.18268431796989748,26.75374158775415,26.75446611326373,0.9995818138122559,0.028915898874402046,0.0005376387271098793,-1.5552835975540802e-05
0.012,32.80984799252799,6.835164197401092,26.92623024770982,0.0037264829101353474,0.48781058681571116,0.9672368539159918,3.4439492225646973,0.06298944354057312,-1.9485897340132396e-09,0.19709578667686536,26.763198883629304,26.764042022088358,0.9995483160018921,0.030049597844481468,0.0005494382930919528,-1.651787715672981e-05
0.0125,32.67323510169459,6.819694384067586,26.91799819753355,0.00401065196533881,0.48812337748385887,0.9674447123231396,3.5732829570770264,0.06422512233257294,3.7350708637085006e-10,0.21206160973851987,26.772989785355346,26.77396557820502,0.9995136857032776,0.031177716329693794,0.000560197455342859,-1.747417263686657e-05
0.013000000000000001,32.5317330260673,6.803687677256129,26.909572542716912,0.0043054215424868465,0.4884468814550505,0.9676598109836937,3.701983690261841,0.06533943116664886,1.8122056633096406e-10,0.22757633512829178,26.78310475735271,26.784228258099873,0.9994780421257019,0.032300274819135666,0.0005698965978808701,-1.841742778196931e-05
0.0135,32.3854186142881,6.787152470680386,26.90096830323364,0.0046107030296327215,0.48878083687728663,0.9678820066693508,3.8300514221191406,0.06633012741804123,4.1196354660932855e-10,0.24363433030909284,26.793534018635143,26.794821314062425,0.9994413256645203,0.03341727703809738,0.0005785162793472409,-1.934324245667085e-05
0.014,32.23437088021512,6.770097499056192,26.892200803751997,0.004926404767961803,0.48912497458253823,0.9681111513538386,3.957488536834717,0.06719502061605453,5.230695043767497e-11,0.26022979099900295,26.804267554612803,26.805735784074663,0.9994035363197327,0.034528736025094986,0.0005860375822521746,-2.024721288762521e-05
0.0145,32.07867090966123,6.7525318345688445,26.883285638802082,0.005252432171016693,0.4894790183236379,0.9683470922936269,4.0842976570129395,0.06793200224637985,-2.735879578441569e-10,0.2773567500664806,26.815295129132,26.81696250193475,0.9993647336959839,0.03563466668128967,0.0005924420547671616,-2.1124897102708928e-05
0.015,31.91840176512961,6.734464883019349,26.874238637379573,0.0055886878456753745,0.4898426850178637,0.9685896721124206,4.21047830581665,0.06853896379470825,-5.397659541550581e-10,0.2950090865368825,26.82660629672778,26.828492107598333,0.9993249177932739,0.036735083907842636,0.0005977115943096578,-2.1971822206978686e-05
0.0155,31.75364838869377,6.7159063796412575,26.865075827044475,0.005935071714671967,0.4902156849968806,0.9688387288894116,4.336034297943115,0.06901387870311737,-8.240847448881539e-10,0.31318053469201895,26.838190415064652,26.8403150577194,0.9992840886116028,0.03783000260591507,0.0006018285639584064,-2.2783493477618322e-05
0.016,31.584497503170212,6.696866384579923,26.855813397575115,0.006291481140448816,0.4905977222627152,0.9690940962512594,4.460966110229492,0.06935475021600723,-4.811154252770677e-10,0.3318646932444764,26.85003665754136,26.852421636372995,0.9992422461509705,0.03891943395137787,0.0006047757342457771,-2.355538345000241e-05
0.0165,31.411037511735113,6.6773552780261705,26.846467664238247,0.006657811050128407,0.4909884947494263,0.9693556034677553,4.585275173187256,0.06955962628126144,-2.271063781478233e-09,0.35105503456850073,26.862134026035676,26.86480196594199,0.9991994500160217,0.04000339284539223,0.0006065362831577659,-2.428296829748433e-05
0.017,31.233358396137106,6.6573837549968164,26.83705503073679,0.007033954061394038,0.49138769459011683,0.969623075551148,4.708962917327881,0.06962660700082779,7.906348908903738e-10,0.3707449139693501,26.87447136376389,26.877446018148536,0.999155580997467,0.041081883013248444,0.0006070937961339951,-2.496162778697908e-05
0.0175,31.051551613660134,6.636962819754441,26.827591951897368,0.007419800609069041,0.49179500838895934,0.9698963333590833,4.832032680511475,0.06955389678478241,-2.041948166109364e-09,0.3909275789731962,26.887037368231994,26.89034362521288,0.999110996723175,0.042154934257268906,0.0006064326735213399,-2.5586894480511546e-05
0.018000000000000002,30.86570999299155,6.616103779859553,26.818094896160684,0.007815239072185736,0.4922101174978627,0.9701751937011057,4.9544830322265625,0.06933967024087906,-2.3257673564813786e-10,0.4115961786198672,26.899820604253605,26.90348449111994,0.9990653395652771,0.04322254657745361,0.0006045371992513537,-2.61540844803676e-05
0.0185,30.675927629150593,6.594818239848404,26.808580307937632,0.008220155901335605,0.4926326982974352,0.9704594694486911,5.076317310333252,0.06898216903209686,8.290233083352305e-11,0.4327437727409003,26.91280951701106,26.916858202975146,0.9990187883377075,0.04428473487496376,0.0006013924721628428,-2.6658663045964204e-05
0.019,30.48229977763411,6.573118094530423,26.799064569894803,0.00863443574609372,0.4930624224818836,0.9707489696487472,5.197537422180176,0.0684797465801239,1.8904584564438665e-09,0.4543633412056403,26.925992445136217,26.930454242430816,0.9989713430404663,0.04534151405096054,0.0005969839403405786,-2.7096011763205752e-05
0.0195,30.28492274793571,6.551015521899657,26.78956396523308,0.009057961582312103,0.4934989573474806,0.9710434996405278,5.318144798278809,0.06783074140548706,-6.685537679018694e-10,0.47644779311840907,26.93935763378757,26.94426199716406,0.998923122882843,0.04639289900660515,0.0005912975175306201,-2.7461584977572784e-05
0.02,30.083893796594765,6.528522975655231,26.780094640022956,0.00949061483907858,0.49394196608424396,0.9713428611759125,5.438138484954834,0.0670335441827774,1.0758991475512403e-09,0.4989899759500839,26.95289324770078,26.958270772387387,0.9988739490509033,0.04743889719247818,0.0005843194667249918,-2.775070970528759e-05
0.0205,29.87931101993165,6.505653177326463,26.770672565660334,0.009932275525140791,0.49439110807045894,0.9716468525429719,5.557524681091309,0.06608664244413376,-2.407217203348466e-10,0.5219826845878311,26.966587384190696,26.972469802373666,0.9988240599632263,0.048479534685611725,0.0005760366329923272,-2.7958867576671764e-05
0.021,29.671273246624537,6.4824191079988,26.76131350150655,0.010382822354597273,0.49484603916967246,0.9719552686927734,5.676301002502441,0.06498852372169495,6.220959858360686e-10,0.5454186702871026,26.980428086082046,26.986848261976046,0.9987732172012329,0.049514807760715485,0.0005664362688548863,-2.8081427444703877e-05
0.021500000000000002,29.45987993028276,6.458833999637634,26.75203295777562,0.010842132871661574,0.4953064120298042,0.9722679013693324,5.79447078704834,0.06373778730630875,3.587660446502383e-10,0.5692906495104885,26.9944033545487,27.00139527812554,0.9987216591835022,0.05054474622011185,0.0005555061507038772,-2.8113852749811485e-05
0.022,29.245231042169955,6.434911326007644,26.742846158731933,0.011310083574308601,0.4957718763839913,0.972584539242661,5.9120354652404785,0.06233301758766174,-1.8731218798251348e-09,0.5935913126384618,27.008501161839302,27.01609994128669,0.9986693263053894,0.05156935006380081,0.0005432343459688127,-2.8051585104549304e-05
0.0225,29.02742696422951,6.410664793186026,26.733768006260664,0.011786550036616602,0.49624207935282,0.9729049680448046,6.028995990753174,0.06077287346124649,-3.3061253734700813e-09,0.618313332537569,27.022709463870694,27.03095131685492,0.9986162185668945,0.05258863791823387,0.0005296094459481537,-2.789006248349324e-05
0.023,28.806568382562887,6.386108329668891,26.724813043872906,0.012271407029622159,0.49671666574756246,0.9732289707088132,6.145352840423584,0.05905606597661972,-1.2509467073318348e-10,0.6434493729721171,27.037016212668274,27.045938456476417,0.998562216758728,0.053602613508701324,0.0005146204493939877,-2.7624721042229794e-05
0.0235,28.582756181509115,6.361256076070779,26.71599542120656,0.012764528640509356,0.4971952783740654,0.9735563275105361,6.261110782623291,0.057181380689144135,-2.2763764206956694e-09,0.6689920968459286,27.05140936863545,27.06105040927419,0.9985076189041138,0.05461130663752556,0.0004982569953426719,-2.725115518842358e-05
0.024,28.356091338472666,6.336122374417987,26.707328859083667,0.013265788389958585,0.4976775583369307,0.9738868162131521,6.3762688636779785,0.05514761433005333,-1.7054055945209257e-09,0.6949341742612698,27.065876912634145,27.076276232963348,0.9984522461891174,0.05561472475528717,0.00048050886834971607,-2.676480835361872e-05
0.0245,28.12667481964354,6.310721757037361,26.698826615183357,0.013775059347484577,0.49816314534362927,0.9742202122143483,6.490828514099121,0.05295363441109657,-1.6803533009479565e-09,0.7212682903825899,27.080406857858833,27.091605004838637,0.9983961582183838,0.05661287531256676,0.0004613664932549,-2.6161256755585782e-05
0.025,27.8946074767514,6.285068935042988,26.69050145038917,0.014292214244599004,0.49865167800818944,0.9745562886960277,6.604791164398193,0.05059834569692612,3.450934815685258e-10,0.7479871530933523,27.094987261487972,27.10702583261851,0.9983392953872681,0.057605765759944916,0.0004408206441439688,-2.5436049327254295e-05
0.025500000000000002,27.65998994499252,6.25917878642424,26.68236559586811,0.014817125585638503,0.49914279415412727,0.9748948167764493,6.718160629272461,0.04808072745800018,2.306787399986021e-10,0.7750835004348386,27.10960623609772,27.122527865130607,0.9982818365097046,0.058593425899744034,0.00041886261897161603,-2.4584835045970976e-05
0.026000000000000002,27.422922542265095,6.233066343739574,26.674430720937533,0.015349665756105284,0.4996361311162458,0.9752355656646858,6.830935478210449,0.04539977386593819,2.0908977327316336e-10,0.8025501078164804,27.124251960822125,27.13810030282242,0.9982237219810486,0.05957585573196411,0.0003954840649385005,-2.3603226509294473e-05
0.0265,27.18350516984562,6.206746781421565,26.66670790177456,0.01588970712837425,0.5001313260409941,0.9755783028172794,6.943119049072266,0.042554549872875214,-1.1600366223163405e-09,0.8303797949879501,27.138912692247548,27.153732408084302,0.9981649518013,0.06055307388305664,0.00037067706580273807,-2.2486910893348977e-05
0.027,26.941837214634795,6.180235402699385,26.659207591021648,0.016437122164627366,0.5006280161850242,0.9759227940969725,7.054712295532227,0.039544157683849335,-9.084106800116842e-10,0.8585654327639343,27.153576775027087,27.169413515369556,0.998105525970459,0.06152509152889252,0.00034443411277607083,-2.1231571736279875e-05
0.0275,26.69801745309829,6.153547626146326,26.651939588339967,0.016991783516883244,0.5011258392116277,0.9762688039334024,7.16571569442749,0.0363677516579628,-8.147064689545402e-10,0.8870999494932046,27.168232652203237,27.18513304109858,0.9980454444885254,0.062491919845342636,0.00031674819183535874,-1.9832974430755712e-05
0.028,26.452143957023832,6.126698971860605,26.64491301196092,0.0175535641239971,0.5016244334847344,0.9766160954856007,7.276132583618164,0.03302453085780144,-8.727725764323679e-10,0.9159763372643226,27.182868875228635,27.200880493335365,0.997984766960144,0.06345357745885849,0.00028761260909959674,-1.8286909835296683e-05
0.0285,26.20431400121127,6.0997050472889285,26.638136271284072,0.018122337305513922,0.5021234383601417,0.976964430806193,7.385962963104248,0.029513735324144363,-4.671129039124366e-10,0.9451876578410017,27.197474113673163,27.216645481222887,0.9979234933853149,0.06441006809473038,0.0002570211363490671,-1.6589199731242843e-05
0.029,25.95462397320892,6.072581532703271,26.63161704056862,0.01869797685226535,0.5026224944736719,0.977313571007144,7.495211124420166,0.025834668427705765,-3.403647363953155e-09,0.9747270483208924,27.212037164609004,27.232417724166744,0.9978617429733276,0.06536142528057098,0.00022496790916193277,-1.4735761396877933e-05
0.029500000000000002,25.703169285204595,6.045344166342322,26.625362233762807,0.019280357113608457,0.5031212440259593,0.9776632764268951,7.603874206542969,0.021986646577715874,-2.1102350977741935e-09,1.0045877265122465,27.226546961665555,27.24818706075691,0.997799277305603,0.06630763411521912,0.00019144742691423744,-1.272244298888836e-05
0.03,25.450044288174873,6.018008729230194,26.619377980514336,0.019869353081212883,0.5036193310635609,0.978013306798776,7.711956024169922,0.01796906255185604,-1.6597976326693242e-09,1.0347629960236313,27.240992583745566,27.2639434574163,0.9977362751960754,0.06724872440099716,0.00015645468374714255,-1.0545263648964465e-05
0.0305,25.195342188391955,5.990591029686159,26.613669603402396,0.02046484046931073,0.5041164017561098,0.9783634214205096,7.8194580078125,0.01378133986145258,-1.3340354376722985e-09,1.065246251062597,27.25536326339687,27.279677016767927,0.9976727366447449,0.06818469613790512,0.00011998499394394457,-8.200236152333673e-06
0.031,24.939154966381846,5.963106887540203,26.608241596429952,0.021066695791331993,0.5046121046692241,0.9787133793246603,7.926380157470703,0.009422942996025085,-3.695438677286944e-10,1.0960309809398938,27.26964839483361,27.295377985711696,0.9976086616516113,0.06911557167768478,8.203405741369352e-05,-5.683425115421414e-06
0.0315,24.68157329842292,5.9355721180703975,26.603097604812547,0.021674796432856636,0.5051060910329057,0.9790629394498788,8.032727241516113,0.0048933811485767365,-2.0542629819431113e-09,1.1271107742765283,27.28383754160195,27.311036763202775,0.9975441694259644,0.07004137337207794,4.25979305873625e-05,-2.990980874528759e-06
0.032,24.42268648066877,5.9080025156789935,26.598240406097727,0.022289020720823463,0.5055980150051581,0.9794118608127598,8.138495445251465,0.00019220038666389883,-5.801981672881595e-10,1.1584793229116992,27.297920443886454,27.326643907724687,0.9974790215492249,0.0709620863199234,1.6730361949157668e-06,-1.1902726981816159e-07
0.0325,24.16258235597412,5.880413837325196,26.593671892646864,0.02290924798894461,0.5060875339305734,0.9797599026801583,8.243692398071289,-0.004681003745645285,-1.411202710244197e-09,1.190130425510321,27.31188702545389,27.342190144450587,0.9974135160446167,0.07187774777412415,-4.074380558449775e-05,2.936154942290159e-06
0.033,23.90134724349699,5.85282178573341,26.5893930555086,0.023535358639283088,0.5065743085936381,0.9801068247417922,8.348313331604004,-0.009726601652801037,-9.219592866926973e-10,1.222057990869535,27.325727400231994,27.3576663720868,0.9973474144935608,0.07278835028409958,-8.465546125080436e-05,6.178311650728574e-06
0.0335,23.639065871145686,5.825241992396877,26.58540396971115,0.0241672341999598,0.5070580034665336,0.9804523872829547,8.452364921569824,-0.014944923110306263,-1.9251684690857473e-09,1.2542560409242802,27.339431878522156,27.3730636693944,0.9972809553146362,0.07369392365217209,-0.0001300644362345338,9.611074347048998e-06
0.034,23.37582131093303,5.797690000397262,26.58170378099757,0.02480475737896401,0.5075382869511909,0.980796351357167,8.555845260620117,-0.02033626101911068,-2.9244995314314792e-09,1.2867187134525997,27.352990972844577,27.388373301383677,0.9972140192985535,0.07459447532892227,-0.0001769729278748855,1.3238058272690978e-05
0.0345,23.111694917295306,5.77018124706185,26.578290694026464,0.02544781211405046,0.5080148316153972,0.9811384789585917,8.658756256103516,-0.025900864973664284,-1.3526172404354497e-09,1.319440264482021,27.366395403416696,27.40358672517881,0.9971465468406677,0.07549001276493073,-0.0002253827260574326,1.70628209161805e-05
0.035,22.846766268427878,5.742731046480738,26.575161962057127,0.02609628361871431,0.5084873144227446,0.9814785331940195,8.761099815368652,-0.03163895010948181,5.869106312061945e-10,1.3524150703989373,27.379636103265383,27.41869559554976,0.9970786571502686,0.07638055086135864,-0.00027529537328518927,2.108882472384721e-05
0.035500000000000004,22.581113110683688,5.715354571907152,26.572313878136352,0.026750058424243574,0.5089554169562241,0.9818162784542673,8.862878799438477,-0.037550702691078186,-1.2140614069622302e-09,1.3856376297635078,27.39270422297418,27.433691770108904,0.9970104694366455,0.07726611196994781,-0.0003267120919190347,2.5319455744465813e-05
0.036000000000000004,22.314811306075722,5.688066838065083,26.569741767801084,0.027409024417856212,0.5094188256352852,0.9821514805847831,8.964092254638672,-0.0436362698674202,-2.1173607311908427e-09,1.41910256483315,27.405591135068303,27.448567314171758,0.996941864490509,0.07814669609069824,-0.0003796337405219674,2.9758108212263323e-05
0.0365,22.047934782918514,5.6608826833888095,26.567439983308446,0.028073070876939374,0.5098772319261866,0.9824839070552869,9.064740180969238,-0.049895744770765305,4.71354733022622e-10,1.4528046227983398,27.418288438040012,27.46331450528065,0.9968727231025696,0.07902231067419052,-0.000434060872066766,3.440810178290121e-05
0.037,21.780555489638527,5.6338167522199685,26.565401899402218,0.028742088499414082,0.5103303325454729,0.982813327128259,9.16482925415039,-0.056329213082790375,-6.082073178426128e-10,1.486738676734865,27.430787960017803,27.477925837391304,0.996803343296051,0.07989298552274704,-0.000489993835799396,3.927260695490986e-05
0.0375,21.512743351777694,5.606883476988398,26.563619910621952,0.029415969430259266,0.5107778296564367,0.9831395120260952,9.264358520507812,-0.06293673813343048,-1.7257796303127293e-09,1.5208997262773143,27.443081762084017,27.49239402472349,0.996733546257019,0.0807587280869484,-0.0005474326899275184,4.435483424458653e-05
0.038,21.244566232208612,5.580097060403671,26.562085430158202,0.030094607284236134,0.5112194310584119,0.9834622350967289,9.363327026367188,-0.06971830129623413,-9.314531368431744e-10,1.5552828980190694,27.455162141245122,27.50671200527652,0.9966633915901184,0.08161954581737518,-0.0006063770269975066,4.965789776179008e-05
0.0385,20.976089894574642,5.553471457684793,26.56078889025483,0.030777897164861904,0.5116548503687866,0.9837812719775595,9.461740493774414,-0.07667389512062073,-8.006676432970039e-10,1.589883445644503,27.467021633060344,27.520872944011746,0.9965928792953491,0.0824754536151886,-0.0006668264395557344,5.518482794286683e-05
0.039,20.70737796996298,5.527020358855936,26.559719744156425,0.03146573567968871,0.5120838071976075,0.9840964007574805,9.559595108032227,-0.08380348980426788,-1.1194438709338783e-09,1.6246967497995486,27.47865301393429,27.53487023570478,0.996522068977356,0.08332645893096924,-0.000728780054487288,6.0938593378523365e-05
0.0395,20.43849192681311,5.500757171136505,26.55886646959663,0.032158020951950146,0.5125060273146741,0.9844074021368304,9.656895637512207,-0.09110697358846664,-2.1359198854042916e-09,1.6597183177071784,27.490049303080035,27.54869750747008,0.9964509010314941,0.0841725766658783,-0.0007922367658466101,6.692210445180535e-05
0.04,20.169491044057978,5.47469500145415,26.558216573820314,0.03285465262864542,0.5129212428090254,0.9847140595850907,9.753643989562988,-0.09858424961566925,-8.958273567394315e-10,1.6949437825347309,27.50120376415896,27.5623486209618,0.9963794350624084,0.08501382172107697,-0.0008571952930651605,7.313823880394921e-05
0.0405,19.900432387490238,5.448846639109789,26.55775660012963,0.033555531885136866,0.5133291922407391,0.9850161594961334,9.849837303161621,-0.10623518377542496,-1.1613738859495015e-09,1.7303689025203886,27.51210990660528,27.575817674255084,0.9963076710700989,0.08585020154714584,-0.0009236540063284338,7.958974310895428e-05
0.041,19.63137078934032,5.423224538623866,26.557472135942227,0.03426056142634323,0.5137296207849599,0.9853134913408552,9.945481300354004,-0.11405961960554123,-2.2427468771013537e-09,1.765989559866423,27.522761486641713,27.58909900341189,0.9962356090545654,0.08668173104524612,-0.0009916112758219242,8.62793531268835e-05
0.0415,19.362358831048542,5.397840802793436,26.557347822346166,0.034969645484617076,0.5141222803681056,0.9856058478170032,10.04057502746582,-0.12205735594034195,-1.889580492075993e-09,1.801801759407161,27.533152507995183,27.6021871837371,0.9961632490158081,0.087508425116539,-0.001061065006069839,9.320973185822368e-05
0.042,19.093446829208286,5.372707165989656,26.55736736513454,0.03568268981440049,0.5145069297961861,0.9858930249960244,10.135120391845703,-0.1302281618118286,-1.284931050449245e-09,1.8378016270599078,27.54327722231991,27.61507703072981,0.9960905909538269,0.08833028376102448,-0.0011320129269734025,0.00010038345499197021
0.0425,18.824682824652548,5.347834977725585,26.55751354729971,0.03639960168375836,0.5148833348752042,0.986174822466768,10.229119300842285,-0.13857188820838928,-2.836912482706566e-09,1.873985408067281,27.553130129336864,27.62776360073595,0.9960178136825562,0.08914733678102493,-0.0012044527102261782,0.00010780301818158478
0.043000000000000003,18.556112574651465,5.323235186523985,26.557768242964816,0.03712028986289453,0.5152512685235949,0.9864510434758599,10.322572708129883,-0.14708811044692993,-2.290026168694226e-09,1.9103494650397415,27.562705976697778,27.640242191308342,0.9959446787834167,0.08995957672595978,-0.0012783812126144767,0.00011547088070074096
0.043500000000000004,18.287779548183998,5.298918324114999,26.558112432727597,0.037844664609759694,0.5156105108766941,0.9867214950645915,10.415478706359863,-0.15577664971351624,-2.9610236484955976e-09,1.9468902758071984,27.571999759583214,27.65250834128103,0.9958712458610535,0.0907670259475708,-0.0013537959894165397,0.00012338945816736668
0.044,18.019724924242325,5.274894489993245,26.558526220389496,0.03857263765286628,0.5159608493832109,0.9869859882021509,10.507843971252441,-0.16463717818260193,-1.2987109165862876e-09,1.9836044310889038,27.581006720043103,27.664557830564444,0.9957976341247559,0.0915696993470192,-0.001430693781003356,0.00013156105706002563
0.0445,17.751987593123495,5.2511733363638,26.55898885104041,0.03930412217142851,0.516302078893719,0.9872443379150492,10.599668502807617,-0.17366933822631836,-1.2635898993806904e-09,2.0204886319908835,27.589722346089538,27.676386679669005,0.9957237839698792,0.09236760437488556,-0.0015090714441612363,0.0001399879256496206
0.045,17.484604160658517,5.2277640535062435,26.55947873046705,0.040039032772950484,0.516634001741161,0.9874963634125782,10.69095230102539,-0.18287284672260284,2.615486716095461e-10,2.0575396873403977,27.598142370550736,27.687991148964223,0.9956498742103577,0.09316075593233109,-0.0015889257192611694,0.00014867226127535105
0.0455,17.217608955325282,5.2046753555856435,26.55997344585138,0.04077728546838838,0.5169564278133932,0.9877418882081502,10.781694412231445,-0.19224727153778076,-4.739514336549178e-10,2.0947545108669896,27.60626276969606,27.69936773768149,0.9955756664276123,0.09394914656877518,-0.0016702527645975351,0.00015761615941300988
0.046,16.95103403818781,5.1819154669391425,26.56044978772248,0.04151879764501567,0.5172691746177952,0.9879807402363837,10.87190055847168,-0.20179222524166107,1.8819219793630992e-10,2.132130118239761,27.61407976164117,27.71051318266799,0.9955012798309326,0.09473281353712082,-0.001753048854880035,0.0001668217300903052
0.0465,16.68490921560048,5.159492108866228,26.560883773124093,0.04226348803712306,0.5175720673379829,0.9882127519657882,10.961569786071777,-0.21150727570056915,-2.23289475798083e-09,2.16966362397058,27.621589804543213,27.72142445690026,0.9954266548156738,0.09551175683736801,-0.0018373099155724049,0.00017629092326387763
0.047,16.419262054612645,5.1374124869505255,26.561250669957523,0.04301127669468714,0.5178649388826656,0.988437760506911,11.050701141357422,-0.22139203548431396,-4.335438119618118e-10,2.2073522381929958,27.62878959459536,27.732098767765333,0.9953519105911255,0.09628598392009735,-0.0019230319885537028,0.00018602568889036775
0.0475,16.1541179010056,5.1156832789402324,26.56152502245783,0.043762084950143984,0.5181476299267042,0.988655607715824,11.139301300048828,-0.2314460724592209,-6.643572358910887e-10,2.2451932633266396,27.6356760638304,27.74253355511808,0.9952769875526428,0.09705551713705063,-0.0020102111157029867,0.00019602791871875525
0.048,15.889499899890746,5.0943106232138184,26.561680677759398,0.0445158353834051,0.5184199889444352,0.9888661402928249,11.227367401123047,-0.24166883528232574,2.5942015202673474e-10,2.283184090636859,27.642246377742893,27.752726489123084,0.9952018857002258,0.09782037138938904,-0.0020988425239920616,0.00020629940263461322
0.0485,15.625429018794831,5.073300107856949,26.561690813505525,0.04527245178525514,0.5186818722353241,0.9890692098762344,11.314902305603027,-0.2520599365234375,2.79454681617608e-10,2.3213221966994046,27.648497932739236,27.762675467889764,0.9951266646385193,0.09858054667711258,-0.00218892190605402,0.0002168418577639386
0.049,15.361924073155189,5.052656760375851,26.56152796645434,0.04603185911927076,0.5189331439420344,0.9892646731311828,11.401909828186035,-0.26261889934539795,-2.4596091829920397e-09,2.3596051397798368,27.654428353425175,27.772378614909304,0.995051383972168,0.09933607280254364,-0.0022804448381066322,0.00022765700123272836
0.0495,15.099001754145839,5.032385038071583,26.561164062032603,0.0467939834824014,0.5191736760609904,0.9894523918332723,11.488386154174805,-0.27334508299827576,-1.0312559695080381e-09,2.398030556137368,27.66003548974011,27.781834276302238,0.9949758648872375,0.10008693486452103,-0.0023734059650450945,0.00023874641919974238
0.05,14.836676658752143,5.0124888190987145,26.560570444786862,0.04755875206435236,0.5194033484455347,0.9896322329470372,11.574335098266602,-0.28423812985420227,-8.683055940927886e-10,2.436596156262681,27.665317413947076,27.791041017885078,0.9949003458023071,0.10083317011594772,-0.0024678008630871773,0.00025011165416799486
0.0505,14.574961322010203,4.992971394231089,26.559717909680522,0.04832609310591023,0.5196220488017745,0.9898040686990937,11.659757614135742,-0.2952973246574402,1.171250429976567e-09,2.47529972105922,27.670272417487794,27.799997622065067,0.9948245882987976,0.10157476365566254,-0.0025636241771280766,0.0002617542049847543
0.051000000000000004,14.313866251324828,4.973835459356202,26.558576734183877,0.04909593585635051,0.519829672677224,0.9899677766459035,11.744657516479492,-0.30652227997779846,-4.580034573820058e-09,2.5141390979773517,27.674899007711396,27.808703084571334,0.9947488903999329,0.10231174528598785,-0.0026608712505549192,0.0002736754540819675
0.051500000000000004,14.053399962777982,4.955083108718725,26.55711671110325,0.049868210530065425,0.5200261234423572,0.9901232397360833,11.829028129577637,-0.3179123103618622,-2.4309239066155897e-09,2.5531121971105515,27.679195904485532,27.81715661103121,0.994672954082489,0.10304411500692368,-0.0027595364954322577,0.00028587685665115714
0.052000000000000005,13.793569019338443,4.936715828932493,26.555307182093962,0.050642848262549604,0.5202113122651878,0.9902703463671839,11.91287899017334,-0.3294669985771179,-1.2857508391306283e-09,2.5922169872627583,27.68316203669838,27.825357613400133,0.9945970773696899,0.10377189517021179,-0.002859615022316575,0.00029835966415703297
0.0525,13.534378070881251,4.918734493779449,26.553117071801513,0.05141978106587894,0.5203851580790038,0.9904089904368819,11.996206283569336,-0.3411855101585388,-2.96471847072155e-09,2.631451491995789,27.686796538660026,27.833305706253814,0.9945209622383118,0.1044950857758522,-0.0029611007776111364,0.0003111251280643046
0.053,13.275829895924803,4.901139359812655,26.550514922573736,0.052198941783816954,0.5205475875433784,0.990539071388537,12.07901668548584,-0.3530675172805786,-2.2823793965898176e-09,2.670813785665581,27.69009874641074,27.841000702950442,0.9944449067115784,0.1052137091755867,-0.0030639891047030687,0.0003241744707338512
0.0535,13.017925444992022,4.883930062779262,26.54746892968645,0.0529802640466798,0.5206985349986085,0.9906604942510656,12.161307334899902,-0.3651123046875,-1.7314281119951147e-09,2.7103019894557945,27.693068193944946,27.848442611672045,0.9943687915802002,0.10592778027057648,-0.0031682741828262806,0.0003375088272150606
0.054,12.760663885501236,4.867105614878418,26.54394697702441,0.053763682226089494,0.5208379424137063,0.9907731696731016,12.243077278137207,-0.3773191571235657,1.270960003907362e-09,2.749914267417166,27.695704609357588,27.85563163135226,0.9942925572395325,0.10663727670907974,-0.0032739497255533934,0.00035112915793433785
0.0545,12.504042648091808,4.8506644028673005,26.539916673158707,0.05454913138974081,0.5209657593280991,0.9908770139514073,12.324334144592285,-0.3896876573562622,-1.2322198816860919e-09,2.789648822520722,27.69800791092116,27.862568147499285,0.9942163825035095,0.10734225809574127,-0.0033810106106102467,0.0003650365397334099
0.055,12.248057474288741,4.83460418702755,26.535345387761403,0.055336547256306094,0.5210819427871844,0.990971949053532,12.405073165893555,-0.40221697092056274,1.0472583911180777e-09,2.8295038927327787,27.69997820309984,27.869252727921157,0.9941401481628418,0.10804270207881927,-0.0034894507844001055,0.00037923193303868175
0.0555,11.992702465410574,4.818922101002752,26.530200288298023,0.056125866150595775,0.521186457271896,0.9910579026346918,12.485298156738281,-0.41490641236305237,3.6187072782745133e-10,2.8694777471193715,27.701615772508244,27.87568611836167,0.9940637946128845,0.10873862355947495,-0.0035992637276649475,0.00039371615275740623
0.056,11.737970132624291,4.803614652516353,26.524448376938118,0.056917024959092684,0.5212792746224417,0.9911348080488763,12.565008163452148,-0.42775553464889526,-4.196205050099877e-10,2.909568681987582,27.7029210838214,27.881869238054247,0.993987500667572,0.10943003743886948,-0.0037104447837918997,0.0004084901593159884
0.0565,11.483851448051286,4.788677724977807,26.518056527624232,0.05770996108596945,0.5213603739563681,0.9912026043541876,12.644207954406738,-0.4407636225223541,1.3243733887335907e-09,2.9497750170708374,27.70389477564195,27.887803175200947,0.9939112067222595,0.11011695861816406,-0.0038229874335229397,0.0004235547094140202
0.057,11.230335896828421,4.774106579983451,26.510991523239568,0.058504612409698745,0.521429741581129,0.9912612363124262,12.722898483276367,-0.45392996072769165,-2.4585198321602775e-09,2.9900950917651357,27.704537656331357,27.893489182384215,0.993834912776947,0.1107993945479393,-0.003936885390430689,0.0004389104142319411
0.0575,10.977411530028611,4.759895860716851,26.503220092814665,0.05930091724035682,0.521487370901316,0.9913106543829472,12.801077842712402,-0.4672539234161377,-3.3119977871365336e-09,3.0305272614226832,27.704850699810628,27.898928671917925,0.9937586188316345,0.11147735267877579,-0.004052132833749056,0.000454558088677004
0.058,10.725065018345974,4.746039596252087,26.494708948714123,0.06009881427771945,0.5215332623207309,0.9913508147108124,12.87874698638916,-0.48073479533195496,4.00412947243467e-09,3.071069893709291,27.70483504133637,27.904123211145013,0.993682324886322,0.11215084791183472,-0.004168723244220018,0.0004704983439296484
0.0585,10.473281706450928,4.732531206761647,26.48542482374395,0.060898242570242025,0.5215674231394701,0.991381679109287,12.955912590026855,-0.4943718910217285,1.5011727416691656e-09,3.1117213650314506,27.704491973257614,27.909074517687905,0.9936060905456543,0.11281989514827728,-0.004286650568246841,0.00048673158744350076
0.059000000000000004,10.222045667921922,4.719363509629215,26.475334508121637,0.06169914147501087,0.5215898674462022,0.9914032150367157,13.032570838928223,-0.5081645250320435,4.537453968112004e-09,3.152480057038747,27.7038229407586,27.91378445465862,0.9935298562049866,0.11348450183868408,-0.00440590875223279,0.0005032585468143225
0.059500000000000004,9.971339760660971,4.706528726466154,26.46440488625073,0.06250145061874965,0.5216006160058123,0.9914153955678443,13.108726501464844,-0.5221120715141296,2.513217189914485e-09,3.193344353207036,27.7028295375922,27.918255025834302,0.9934538006782532,0.11414468288421631,-0.004526491742581129,0.0005200795130804181
0.06,9.721145682701778,4.6940184910287694,26.452602973242723,0.06330510985995624,0.521599696142605,0.9914181993596408,13.184371948242188,-0.5362135171890259,-3.82310272328823e-09,3.234312635507367,27.70151350180917,27.92248837080484,0.9933775067329407,0.11480042338371277,-0.004648391157388687,0.0005371948354877532
0.0605,9.471444028320041,4.681823858031968,26.439895951130072,0.06411005925224343,0.5215871416192354,0.9914116106116939,13.259521484375,-0.5504686832427979,-3.3333908966426407e-09,3.2753832811654764,27.699876711486812,27.92648676009776,0.993301510810852,0.11545178294181824,-0.004771603737026453,0.0005546051543205976
0.061,9.222214344357376,4.6699353128534,26.426251204714678,0.06491623900894816,0.5215629925115624,0.9913956190212647,13.334165573120117,-0.5648762583732605,1.2855797537625335e-09,3.316554659516214,27.697921180461872,27.930252590286308,0.9932254552841187,0.11609872430562973,-0.004896120168268681,0.0005723104695789516
0.0615,8.973435186671416,4.658342782120411,26.411636356997302,0.06572358946907127,0.5215272950796078,0.9913702197330752,13.408310890197754,-0.5794358849525452,3.0773263937078355e-09,3.357825128957082,27.695649054071314,27.933788379086362,0.99314945936203,0.11674128472805023,-0.005021935328841209,0.0005903111305087805
0.062,8.725084176626716,4.647035645170753,26.3960193041348,0.06653205106460111,0.521480101634802,0.991335413283926,13.48196029663086,-0.5941469669342041,-1.056345766414779e-08,3.3991930340046204,27.693062604904465,27.937096760446835,0.9930736422538757,0.11737947911024094,-0.005149043630808592,0.0006086074281483889
0.0625,8.47713805754239,4.636002746376284,26.37936824987243,0.0673415642892709,0.5214214704037112,0.9912912055422622,13.555107116699219,-0.6090083718299866,-5.706573880104315e-09,3.440656702457091,27.690164228570005,27.940180479638812,0.9929978251457214,0.11801328510046005,-0.005277436692267656,0.0006271993624977767
0.063,8.229572751014846,4.625232408317426,26.361651739400877,0.06815206966879324,0.5213514653884226,0.9912376076427551,13.627756118774414,-0.6240196824073792,8.254998351553411e-10,3.4822144426667228,27.686956439481072,27.94304238834831,0.9929220676422119,0.11864273250102997,-0.005407108925282955,0.0006460871663875878
0.0635,7.982363413035379,4.6147124457945745,26.342838692588117,0.068963507732608,0.5212701562237865,0.9911746359160626,13.69991397857666,-0.639180064201355,-9.16156572827731e-09,3.5238645409241474,27.683441866661205,27.945685439776902,0.9928464889526367,0.11926785111427307,-0.005538054276257753,0.0006652707816101611
0.064,7.735484489825007,4.60443018066114,26.3228984365378,0.06977581898717608,0.5211776180316929,0.9911023118138502,13.771573066711426,-0.6544886827468872,-9.512920229326483e-09,3.565605258957663,27.67962324957393,27.948112683754754,0.9927709102630615,0.11988861858844757,-0.005670264363288879,0.0006847502081654966
0.0645,7.488909773310685,4.594372457461459,26.301800737428156,0.07058894389084344,0.5210739312725752,0.9910206618292184,13.842740058898926,-0.6699448227882385,-4.960602151271587e-09,3.6074348315493983,27.67550343397854,27.950327261870196,0.9926954507827759,0.12050505727529526,-0.0058037335984408855,0.0007045254460535944
0.065,7.2426124561695975,4.584525659855336,26.279515831585663,0.07140282283029584,0.5209591815943242,0.9909297174126713,13.913416862487793,-0.6855480670928955,-8.11789691024245e-10,3.6493514642702283,27.671085367814058,27.952332402619554,0.9926202893257141,0.12111719697713852,-0.005938455928117037,0.0007245964370667934
0.0655,6.996565186370382,4.574875727809503,26.256014455750762,0.07221739609861667,0.5208334596788029,0.9908295148837452,13.983600616455078,-0.7012971639633179,3.678022331143893e-10,3.691353331334945,27.666372097114103,27.95413141658154,0.9925450682640076,0.12172501534223557,-0.006074423436075449,0.0007449629483744502
0.066,6.75074012114264,4.565408175534996,26.23126787649366,0.07303260387495766,0.5206968610861432,0.9907200953384714,14.05329418182373,-0.7171915769577026,-3.123159786344587e-10,3.7334385735788835,27.661366761953754,27.95572769161902,0.9924699664115906,0.12232854217290878,-0.006211630068719387,0.0007656248053535819
0.0665,6.5051089803085205,4.556108110147926,26.205247918740675,0.07384838620582368,0.5205494860970087,0.9906015045527946,14.12249755859375,-0.7332305908203125,2.56454568692277e-09,3.7756052965569,27.65607259243071,27.957124688112014,0.9923950433731079,0.12292778491973877,-0.006350068841129541,0.0007865818333812058
0.067,6.259643098912747,4.546960251029867,26.177926993373223,0.07466468298797016,0.5203914395530038,0.9904737928821236,14.191213607788086,-0.7494133710861206,4.1434553565977694e-09,3.817851568765286,27.650492904681652,27.95832593422466,0.9923202395439148,0.12352275103330612,-0.00648973323404789,0.0008078336832113564
0.0675,6.014313479089981,4.537948949862724,26.14927812386342,0.07548143395290421,0.5202228306954157,0.9903370151571558,14.259442329406738,-0.7657392024993896,4.642528583786998e-09,3.8601754199869114,27.64463109693579,27.95933502120945,0.9922455549240112,0.12411344796419144,-0.006630616262555122,0.0008293800638057292
0.068,5.76909084111109,4.5290582113117335,26.119274971912606,0.07629857865297665,0.5200437730024585,0.9901912305761578,14.327188491821289,-0.7822074890136719,-4.016883714541564e-09,3.9025748397595796,27.638490645605884,27.960155598750983,0.9921711087226868,0.1246999055147171,-0.006772711873054504,0.0008512206259183586
0.0685,5.523945673552552,4.520271714328908,26.08789186206086,0.07711605644904716,0.5198543840252063,0.9900365025938561,14.394447326660156,-0.798816978931427,1.6982322215142176e-09,3.9450477759673364,27.632075101418504,27.960791370352254,0.9920967221260071,0.12528210878372192,-0.006916011217981577,0.0008733548456802964
0.069,5.278848282535939,4.511572834048217,26.0551038052376,0.07793380649969843,0.5196547852223838,0.9898728988071136,14.461222648620605,-0.8155672550201416,6.587532186408396e-10,3.9875921335541067,27.625388085583864,27.961246088765694,0.9920225143432617,0.1258600801229477,-0.007060508709400892,0.0008957823156379163
0.0695,5.033768839987107,4.502944664242497,26.02088652122616,0.07875176775197308,0.5194451017941919,0.9897004908375677,14.527518272399902,-0.8324576616287231,8.256199196532421e-11,4.030205773358884,27.618433286006276,27.96152355147119,0.9919485449790955,0.1264338344335556,-0.007206198759377003,0.0009185026283375919
0.07,4.788677430867573,4.494370040311193,25.98521646001614,0.07956987893359956,0.5192254625153383,0.9895193542114156,14.593326568603516,-0.8494869470596313,-4.246736740043389e-09,4.072886511071258,27.61121445353544,27.961627596203105,0.991874635219574,0.12700337171554565,-0.007353072054684162,0.0009415150852873921
0.07050000000000001,4.543544099333176,4.485831562766848,25.9480708220213,0.08038807854667225,0.5189959995674422,0.9893295682365125,14.658658981323242,-0.866654634475708,-5.553080217879369e-09,4.115632116306028,27.603735398259428,27.961562096528453,0.9918009042739868,0.12756870687007904,-0.0075011225417256355,0.000964819104410708
0.07100000000000001,4.29833889377811,4.477311621187422,25.909427577141237,0.08120630486274415,0.5187568483709782,0.9891312158769825,14.723517417907715,-0.8839601874351501,-2.575655688730194e-09,4.158440311795204,27.59599998583934,27.9613309574776,0.9917274713516235,0.12812986969947815,-0.007650344632565975,0.000988414278253913
0.07150000000000001,4.053031910724979,4.468792418600583,25.869265482648547,0.08202449591928912,0.5185081474169299,0.988924383625517,14.787891387939453,-0.9014022350311279,-7.00428559596844e-09,4.2013087726956,27.588012133886362,27.96093811122968,0.991654098033905,0.1286868304014206,-0.007800729479640722,0.0010122996754944324
0.07200000000000001,3.8075933375245543,4.460255996265385,25.82756409988524,0.08284258951748631,0.518250038098306,0.9887091613735576,14.851791381835938,-0.9189806580543518,-3.4594997977421826e-09,4.244235126009955,27.57977580838079,27.96038751285365,0.9915810227394104,0.12923963367938995,-0.007952271960675716,0.0010364747140556574
0.0725,3.5619934938315367,4.451684258815804,25.784303809753816,0.08366052322127762,0.5179826645416878,0.9884856422795476,14.915216445922852,-0.9366941452026367,2.8990891909330685e-09,4.287216950119389,27.57129502013366,27.95968313610677,0.9915081262588501,0.12978827953338623,-0.008104963228106499,0.001060938579030335
0.073,3.3162028718254306,4.443058999729978,25.739465826991683,0.08447823435764425,0.5177061734389575,0.9882539226354465,14.978165626525879,-0.954541802406311,-5.148760237605465e-11,4.330251774424674,27.56257382129071,27.958828969291602,0.9914353489875793,0.13033275306224823,-0.00825879629701376,0.0010856902226805687
0.0735,3.0701921751484265,4.434361927088362,25.693032213219016,0.08529566001805017,0.5174207138793644,0.988014101731703,15.040640830993652,-0.9725233912467957,-8.616269475680838e-09,4.3733370790938535,27.553616301878503,27.957829011172556,0.9913628697395325,0.13087309896945953,-0.008413766510784626,0.0011107291793450713
0.074,2.8239323565348307,4.425574689583265,25.644985888752846,0.08611273706099427,0.5171264371820838,0.9877662817208763,15.102643966674805,-0.990637481212616,3.859397246230856e-09,4.416470294913371,27.544426586393037,27.956687266953328,0.9912905097007751,0.13140930235385895,-0.008569863624870777,0.0011360542848706245
0.0745,2.5773946541093378,4.416678902741943,25.595310643182472,0.08692940211561236,0.5168234967294122,0.987510567480095,15.164175033569336,-1.0088838338851929,2.4354085415012605e-09,4.459648803239812,27.53500883043041,27.955407744316066,0.9912184476852417,0.13194139301776886,-0.008727083913981915,0.0011616648407652974
0.075,2.3305506263340066,4.407656175324726,25.5439911447035,0.08774559158626852,0.5165120478007463,0.9872470664725695,15.225238800048828,-1.0272613763809204,2.534719989455425e-09,4.502869936049108,27.52536721735916,27.95399444952268,0.9911466240882874,0.13246937096118927,-0.008885417133569717,0.0011875595664605498
0.0755,2.083372185586516,4.398488135859528,25.491012948209967,0.08856124165807389,0.5161922474074923,0.9869758886083186,15.285829544067383,-1.0457689762115479,-3.025335315598454e-09,4.546130976080084,27.515505955034705,27.952451383579984,0.9910749197006226,0.13299325108528137,-0.009044856764376163,0.0012137375306338072
0.076,1.835831630354738,4.389156459273495,25.436362502146412,0.08937628830326945,0.5158642541290381,0.9866971461043265,15.345955848693848,-1.064406394958496,-7.360487774832336e-09,4.58942915706896,27.50542927255514,27.950782538468555,0.9910035133361816,0.13351304829120636,-0.009205397218465805,0.0012401980347931385
0.0765,1.5879016760352875,4.379642893582653,25.380027154124086,0.0901906672884085,0.5155282279499305,0.9864109533443209,15.405613899230957,-1.0831724405288696,-8.435804055295648e-09,4.632761664071285,27.495141417058136,27.94899189343608,0.9909323453903198,0.13402876257896423,-0.00936703011393547,0.00126693956553936
0.077,1.3395554843261455,4.36992928659988,25.321995155307125,0.09100431418227463,0.5151843300983936,0.9861174267383542,15.464807510375977,-1.1020662784576416,3.26039795162103e-09,4.676125633867862,27.48464665055931,27.947083411356253,0.9908614158630371,0.1345404088497162,-0.009529748931527138,0.001293961307965219
0.0775,1.0907666912058511,4.35999761262175,25.26225566357746,0.09181716436447036,0.5148327228863083,0.985816684582375,15.523536682128906,-1.1210871934890747,1.1241384711979663e-08,4.7195181554509915,27.473949246831143,27.94506103515316,0.9907907247543335,0.1350480020046234,-0.009693545289337635,0.0013212618650868535
0.078,0.84150943349416,4.3498299990545615,25.200798745488687,0.09262915303461157,0.5144735695507923,0.9855088469179967,15.581803321838379,-1.1402345895767212,-5.140953884819055e-09,4.762936270587282,27.46305348832256,27.94292868429173,0.9907203316688538,0.1355515420436859,-0.009858413599431515,0.0013488399563357234
0.0785,0.5917583739913314,4.339408752940059,25.13761537702161,0.09344021522206356,0.5141070340974976,0.9851940353926288,15.639607429504395,-1.159507393836975,-4.689046484429582e-09,4.806376974453338,27.451963663118953,27.94069025133484,0.9906501770019531,0.13605104386806488,-0.010024345479905605,0.0013766945339739323
0.079,0.34148872519547674,4.328716387341273,25.072697443156013,0.09425028579615488,0.5137332811457492,0.9848723731201661,15.696951866149902,-1.1789045333862305,-7.3691617252791275e-09,4.849837216340476,27.440684061942413,27.93834959856724,0.9905803203582764,0.1365465372800827,-0.01019133348017931,0.0014048242010176182
0.0795,0.09067627159965756,4.317735647549236,25.00603773627521,0.09505929947680644,0.5133524757756415,0.9845439845424042,15.753833770751953,-1.1984251737594604,-4.6051367164068324e-09,4.893313900424707,27.429218975192214,27.935910554686874,0.9905105829238892,0.137037992477417,-0.010359368287026882,0.0014332274440675974
0.08,-0.16070260942743572,4.306449537071414,24.9376299534221,0.09586719084551416,0.5129647833772127,0.9842089952913866,15.810257911682129,-1.2180689573287964,9.134589085135758e-09,4.936803886598004,27.41757269002504,27.933376911563585,0.9904412627220154,0.13752545416355133,-0.010528446175158024,0.0014619033318012953
0.0805,-0.41267092817133977,4.294841343363103,24.867468692426794,0.0966738943566252,0.512570369501799,0.9838675320528215,15.866226196289062,-1.2378345727920532,2.837010626421943e-09,4.980303991357189,27.40574948747536,27.930752421065762,0.9903721809387207,0.13800892233848572,-0.010698557831346989,0.0014908501179888844
0.081,-0.6652510645043225,4.282894663263418,24.795549446928202,0.0974793443488499,0.5121693997156945,0.9835197224307777,15.921736717224121,-1.257720947265625,1.7110689753963015e-08,5.023810988746454,27.3937536396158,27.928040791955365,0.9903032779693604,0.13848839700222015,-0.01086969394236803,0.0015200662892311811
0.0815,-0.9184647512107387,4.270593428097922,24.721868600313385,0.09828347505695383,0.5117620394562034,0.9831656948137969,15.97679328918457,-1.2777278423309326,-1.271200389396654e-08,5.067321611349866,27.381589406757392,27.925245686851213,0.9902347326278687,0.13896390795707703,-0.011041850782930851,0.0015495504485443234
0.082,-1.172333058693588,4.257921928410528,24.64642341860023,0.0990862206235755,0.5113484538902012,0.9828055782426148,16.031396865844727,-1.2978541851043701,7.817490654815629e-09,5.110832551329979,27.36926103468995,27.922370719261117,0.9901664853096008,0.13943547010421753,-0.011215019039809704,0.001579301548190415
0.0825,-1.4268763810488616,4.2448648382878345,24.569212042290687,0.09988751511112001,0.5109288077752993,0.9824395022796294,16.08554458618164,-1.318098545074463,-1.058123011432599e-08,5.154340461508997,27.35677275196274,27.91941945068313,0.9900984168052673,0.13990306854248047,-0.011389189399778843,0.001609317259863019
0.083,-1.682114423492564,4.231407239239783,24.490233477223217,0.10068729251368001,0.5105032653237034,0.9820675968802921,16.139244079589844,-1.338460922241211,5.680875214686409e-10,5.197841956488768,27.344128767205316,27.91639538777593,0.9900307655334473,0.14036673307418823,-0.01156435627490282,0.0016395964194089174
0.0835,-1.9380661911236743,4.217534643601155,24.409487584454446,0.10148548676893943,0.5100719900688674,0.9816899922665584,16.192493438720703,-1.35893976688385,7.258993850456363e-09,5.241333613806193,27.331333266489228,27.91330197959898,0.9899633526802063,0.14082646369934082,-0.011740511283278465,0.0016701372805982828
0.084,-2.194749979004796,4.203233017419293,24.326975069201637,0.10228203177001811,0.5096351447350256,0.9813068188025665,16.245290756225586,-1.379534363746643,1.943731753328848e-08,5.284811975120478,27.31839041073036,27.910142614922442,0.9898962378501892,0.14128227531909943,-0.011917646043002605,0.0017009382136166096
0.0845,-2.452183363540714,4.1884888027942715,24.242697468878767,0.10307686137722055,0.5091928911096902,0.9809182068726692,16.297643661499023,-1.4002436399459839,-3.467857556671561e-09,5.32827354742912,27.30530433313266,27.906920619607305,0.989829421043396,0.14173419773578644,-0.012095753103494644,0.0017319972394034266
0.085,-2.7103831951337183,4.173288939638494,24.156657140260066,0.10386990942965366,0.5087453899191986,0.9805242867619689,16.34954833984375,-1.4210669994354248,4.019663712995225e-09,5.3717148043092635,27.2920791366735,27.90363925405619,0.9897629022598267,0.14218221604824066,-0.012274825014173985,0.001763313077390194
0.0855,-2.969365592093138,4.157620886823876,24.068857245806367,0.10466110975668645,0.5082928007073886,0.9801251885394907,16.40100860595703,-1.4420033693313599,1.677146976852839e-09,5.415132187181621,27.27871889163112,27.900301710734997,0.9896966814994812,0.1426263451576233,-0.01245485432446003,0.0017948836321011186
0.08600000000000001,-3.2291459357753967,4.1414726426855,23.97930173919027,0.10545039618922263,0.5078352817174773,0.9797210419441208,16.452024459838867,-1.4630519151687622,-1.1123429288772968e-08,5.45852210659385,27.265227633154673,27.896911111765867,0.9896307587623596,0.1430666148662567,-0.012635832652449608,0.001826707273721695
0.08650000000000001,-3.4897388669295566,4.1248327648518295,23.88799535005745,0.10623770257076759,0.5073729897772175,0.9793119762734344,16.502595901489258,-1.4842114448547363,-8.16784240242896e-09,5.501880943520845,27.25160935887754,27.893470506592006,0.9895651936531067,0.14350301027297974,-0.012817750684916973,0.0018587817903608084
0.08700000000000001,-3.751158283222398,4.107690389372632,23.79494356806192,0.10702296276826845,0.5069060801873955,0.9788981202755345,16.55272674560547,-1.505481243133545,1.107781155695875e-08,5.545205050679186,27.237868026574255,27.889982869714462,0.9894999265670776,0.14393556118011475,-0.013000600971281528,0.001891105668619275
0.08750000000000001,-4.013417337915964,4.090035249116854,23.70015262621423,0.10780611068271671,0.5064347066137381,0.9784796020440159,16.602418899536133,-1.526860237121582,7.114856703793748e-09,5.588490753853415,27.224007551861767,27.886451098501542,0.9894349575042725,0.14436426758766174,-0.013184376060962677,0.0019236765801906586
0.088,-4.276528439669589,4.071857691413966,23.60362948358157,0.10858708025950167,0.5059590209822894,0.9780565489161517,16.65166664123535,-1.5483473539352417,6.414488940009733e-09,5.631734353231874,27.210031805946034,27.882878011071384,0.9893702268600464,0.14478914439678192,-0.013369066640734673,0.0019564928952604532
0.0885,-4.54050325343757,4.053148694913433,23.5053818073805,0.10936580549851234,0.5054791733783135,0.9776290873744341,16.700485229492188,-1.5699422359466553,1.001797667044002e-08,5.674932124749992,27.195944613413815,27.879266344247707,0.9893060326576233,0.14521022140979767,-0.013554667122662067,0.001989552518352866
0.089,-4.80535270243289,4.033899885638337,23.40541795450167,0.11014222046398629,0.504995311948778,0.9771973429515295,16.748863220214844,-1.591643214225769,-8.312190935555464e-09,5.718080321439262,27.1817497500714,27.875618751589936,0.9892420172691345,0.14562749862670898,-0.013741166330873966,0.0020228533539921045
0.0895,-5.07108697112656,4.014103552210377,23.303746952508412,0.11091625929411107,0.5045075828084699,0.9767614401387696,16.79680633544922,-1.6134496927261353,-7.37513650150845e-09,5.76117517478016,27.16745094083038,27.871937801497776,0.9891783595085144,0.14604097604751587,-0.013928556814789772,0.002056393539533019
0.09,-5.3377155092516615,3.9937526602249043,23.200378480149478,0.11168785621038721,0.5040161299497913,0.9763215022982596,16.844316482543945,-1.635360836982727,2.8611809810286104e-08,5.804212896057533,27.15305185764147,27.86822597539091,0.9891151189804077,0.1464506834745407,-0.014116831123828888,0.002090170979499817
0.0905,-5.605247036780443,3.972840865755978,23.095322847427518,0.11245694552676701,0.5035210951562789,0.9758776515786652,16.89139175415039,-1.6573747396469116,-2.019124245578041e-08,5.8471896777173615,27.138556117477567,27.864485665964956,0.9890521168708801,0.14685660600662231,-0.014305977150797844,0.002124182414263487
0.091,-5.8736895498424095,3.9513625279728037,22.988590975264728,0.11322346165858639,0.5030226179198817,0.9754300088347938,16.938034057617188,-1.6794912815093994,8.064188428136276e-09,5.890101694723566,27.123967280365903,27.86071917552311,0.9889894723892212,0.14725877344608307,-0.014495988376438618,0.0021584269125014544
0.0915,-6.143050327550719,3.929312720850363,22.880194374806887,0.11398733913131455,0.502520835362047,0.974978693550989,16.984249114990234,-1.7017087936401367,-5.635291788763652e-09,5.93294510591434,27.109288847471806,27.85692871438598,0.9889271259307861,0.14765720069408417,-0.014686856418848038,0.0021929016802459955
0.092,-6.413335939704002,3.9066872439584923,22.770145126407247,0.11474851258914577,0.5020158821586299,0.9745238237684589,17.0300350189209,-1.7240266799926758,-1.8105799526324518e-08,5.975716055357047,27.094524259232955,27.85311639937828,0.9888651371002197,0.1480518877506256,-0.014878571964800358,0.0022276046220213175
0.0925,-6.684552255330141,3.883482632315001,22.658455858331447,0.11550691680346584,0.5015078904686665,0.9740655160165443,17.07539939880371,-1.7464443445205688,-2.3025112483310295e-08,6.018410673701492,27.079676893546687,27.849284252394668,0.9888036251068115,0.14844287931919098,-0.015071128495037556,0.0022625336423516273
0.093,-6.956704452038476,3.859696165290065,22.545139725224406,0.11626248668122695,0.5009969898670258,0.9736038852480233,17.120328903198242,-1.7689597606658936,-1.456818043976682e-08,6.06102507953111,27.064750064009807,27.845434199044195,0.9887422919273376,0.14883014559745789,-0.015264512971043587,0.002297686180099845
0.0935,-7.229797026146568,3.835325874550426,22.430210386379635,0.1170151572732688,0.5004833072809717,0.9731390447784626,17.164836883544922,-1.7915722131729126,-2.421548828124287e-08,6.1035553807121214,27.04974701821306,27.841568067375285,0.9886813163757324,0.14921371638774872,-0.015458717942237854,0.00233305967412889
0.094,-7.503833803547544,3.810370551033476,22.31368198385118,0.11776486378263018,0.49996696693064197,0.9726711062296869,17.20892333984375,-1.8142811059951782,9.24621268438841e-09,6.1459976757407935,27.03467093608995,27.837687586680847,0.9886208176612854,0.14959360659122467,-0.015653736889362335,0.0023686522617936134
0.0945,-7.7788179512839974,3.784829750942914,22.19556912044771,0.11851154157289565,0.4994480902734646,0.9722001794773806,17.252588272094727,-1.8370848894119263,1.538381333432426e-08,6.188348055089142,27.019524928321538,27.83379438638517,0.9885606169700623,0.14996981620788574,-0.015849556773900986,0.002404460683465004
0.095,-8.054751989794193,3.758703800758987,22.075886837647722,0.1192551261766274,0.49892679595251693,0.9717263726028668,17.29583168029785,-1.8599822521209717,1.3145165844719031e-08,6.2306026025496095,27.00431203479757,27.82988999501277,0.9885007739067078,0.15034236013889313,-0.01604616828262806,0.002440482610836625
0.0955,-8.331637805796566,3.7319938012580884,21.954650593473986,0.11999555330393753,0.4984031997488403,0.9712497918490711,17.338655471801758,-1.8829724788665771,3.203812681817908e-08,6.272757396579639,26.989035223135318,27.825975839240733,0.9884412884712219,0.1507112681865692,-0.01624356396496296,0.002476715948432684
0.096,-8.609476665778349,3.704701630537718,21.831876240364934,0.12073275885125521,0.49787741453770684,0.9707705415807114,17.381057739257812,-1.9060544967651367,2.2836450952468113e-08,6.314808511646872,26.97369738725616,27.822053243034542,0.9883821606636047,0.1510765254497528,-0.01644173450767994,0.002513157669454813
0.0965,-8.888269230054355,3.676829946044612,21.707580003079336,0.12146667891035082,0.49734955024884325,0.9702887242487095,17.42304801940918,-1.9292269945144653,-1.1099185570628833e-08,6.356752019576348,26.958301346021358,27.818123426868926,0.9883233904838562,0.1514381766319275,-0.016640668734908104,0.0025498054455965757
0.097,-9.168015567361993,3.6483821856050658,21.581778456670243,0.1221972497776787,0.49681971383060436,0.9698044403588348,17.464624404907227,-1.9524884223937988,-1.2902462209751775e-08,6.398583990900933,26.942849841927547,27.814187507034323,0.9882649779319763,0.15179622173309326,-0.016840357333421707,0.0025866569485515356
0.0975,-9.448715169958874,3.619362567458185,21.454488504562576,0.12292440796410478,0.4962880092180914,0.9693177884445997,17.505783081054688,-1.975838541984558,-4.735619008044978e-09,6.440300496216483,26.92734553986234,27.81024649502969,0.9882069230079651,0.15215066075325012,-0.017040790989995003,0.002623709151521325
0.098,-9.730366969189468,3.5897760892941557,21.32572735676827,0.12364809020508567,0.4957545373052039,0.9688288650443851,17.546537399291992,-1.9992756843566895,2.6790834439793798e-08,6.481897607543408,26.9117910259212,27.806301297042825,0.9881493449211121,0.15250153839588165,-0.017241960391402245,0.0026609597261995077
0.0985,-10.01296935148768,3.5596285263011542,21.195512508271264,0.12436823347137203,0.495219395920608,0.968337764682794,17.58687400817871,-2.022798538208008,-1.1837954616567004e-08,6.523371399696649,26.8961888062859,27.80235271351883,0.9880920052528381,0.15284882485866547,-0.017443854361772537,0.0026984051801264286
0.099,-10.296520174782394,3.5289264282260464,21.063861717613566,0.1250847749803068,0.4946826798076126,0.96784457985623,17.62680435180664,-2.0464060306549072,-8.70974048439166e-09,6.564717951665866,26.880541306165387,27.79840143881796,0.9880350828170776,0.15319254994392395,-0.017646463587880135,0.0027360431849956512
0.0995,-10.58101678527348,3.49767711545538,20.930792985712475,0.12579765220779232,0.49414448060792565,0.9673494010226671,17.666324615478516,-2.070096969604492,-3.995912933874024e-09,6.605933348008133,26.86485086879966,27.79444806096353,0.9879785180091858,0.1535327285528183,-0.01784977689385414,0.002773870946839452
0.1,-10.866456034545802,3.4658886741246286,20.796324534937813,0.12650680290100086,0.49360488684927134,0.9668523165956063,17.7054386138916,-2.0938704013824463,7.134425050736581e-09,6.6470136802552275,26.849119754526924,27.79049306148077,0.9879223108291626,0.1538693755865097,-0.01805378496646881,0.0028118856716901064
0.1005,-11.15283429698917,3.433569950264958,20.66047478847649,0.12721216509190356,0.4930639839368441,0.9663534129421704,17.74414825439453,-2.117724657058716,2.9320756933515213e-09,6.687955048338003,26.83335013991517,27.78653681532801,0.9878664612770081,0.15420250594615936,-0.01825847662985325,0.002850084565579891
0.101,-11.440147487492732,3.4007305429981547,20.523262350010732,0.1279136771116912,0.49252185414856225,0.9658527743853248,17.782455444335938,-2.141658306121826,9.181545301828464e-09,6.72875356203,26.817544116957766,27.782579590920257,0.9878110289573669,0.15453213453292847,-0.01846384070813656,0.0028884641360491514
0.1015,-11.72839107938235,3.367380796791701,20.38470598373465,0.12861127760616395,0.4919785766340971,0.9653504832101854,17.82036018371582,-2.1656711101531982,1.1209397854372583e-08,6.769405342412926,26.801703692333973,27.778621550246463,0.9877559542655945,0.15485826134681702,-0.018669867888092995,0.0029270220547914505
0.10200000000000001,-12.017560122570302,3.3335317927871873,20.244824594732123,0.12930490555216456,0.49143422741763315,0.9648466196743466,17.857864379882812,-2.1897614002227783,2.4488877592432345e-09,6.809906523366627,26.785830786734834,27.77466274908156,0.9877013564109802,0.1551809161901474,-0.01887654885649681,0.0029657548293471336
0.10250000000000001,-12.30764926188687,3.2991953392165905,20.103637209738206,0.1299945002751282,0.49088887940432213,0.9643412620222285,17.89497184753418,-2.2139270305633545,8.085050851036613e-09,6.850253253085856,26.76992723425381,27.77070313729298,0.9876470565795898,0.15550009906291962,-0.019083868712186813,0.0030046598985791206
0.10300000000000001,-12.598652755563936,3.264383960922075,19.96116295830382,0.13068000146782438,0.4903426023903861,0.9638344865033515,17.931676864624023,-2.2381675243377686,1.2615927191816922e-09,6.890441695626774,26.753994781843225,27.766742559243376,0.9875931143760681,0.15581582486629486,-0.019291818141937256,0.0030437337700277567
0.10350000000000001,-12.890564493841142,3.2291108879961756,19.817421054382937,0.13136134921036097,0.48979546307682076,0.9633263673945097,17.967988967895508,-2.2624807357788086,-1.2354667511260686e-08,6.930468032485602,26.73803508883588,27.76278075428931,0.987539529800415,0.15612810850143433,-0.019500385969877243,0.003082973649725318
0.10400000000000001,-13.183378017665703,3.193390043560345,19.6724307783588,0.1320384839915214,0.4892475250866492,0.9628169770257733,18.003904342651367,-2.2868664264678955,-4.306822454225312e-09,6.9703284642121215,26.72204972653209,27.75881735737692,0.9874863624572754,0.1564369648694992,-0.01970955915749073,0.003122375812381506
0.1045,-13.477086537457364,3.1572360307008833,19.526211459525413,0.13271134673150517,0.4886988489856707,0.9623063858102612,18.039426803588867,-2.3113224506378174,9.835164682669983e-09,7.010019212060755,26.706040177851953,27.754851899734717,0.9874335527420044,0.1567424088716507,-0.01991932839155197,0.003161937929689884
0.105,-13.771682951910611,3.1206641185823907,19.37878245903766,0.13337987880613417,0.4881494923066455,0.9617946622776166,18.074556350708008,-2.3358476161956787,-2.012327371403444e-08,7.049536519681623,26.690007837052505,27.7508838096639,0.9873811602592468,0.1570444405078888,-0.02012968249619007,0.003201655810698867
0.1055,-14.0671598668066,3.083690227759829,19.230163153342637,0.13404402207259192,0.48759950957685805,0.9612818731111195,18.10930061340332,-2.360441207885742,1.3684491761978279e-08,7.088876654854302,26.67395400950958,27.746912413426493,0.9873292446136475,0.15734310448169708,-0.020340610295534134,0.0032415275927633047
0.106,-14.363509613807887,3.046330914711273,19.080372918102956,0.1347037188967549,0.4870489523489875,0.9607680831883585,18.143651962280273,-2.385101079940796,5.4132605065149164e-09,7.128035911266754,26.6578799115637,27.742936936231217,0.9872775673866272,0.15763837099075317,-0.020552098751068115,0.0032815486192703247
0.1065,-14.660724269209554,3.008603355614366,18.929431112620815,0.1353589121821734,0.48649786923522337,0.9602533556253853,18.17761993408203,-2.4098262786865234,1.8892292175110015e-08,7.167010610341844,26.641786670429816,27.7389565033175,0.9872264266014099,0.15793029963970184,-0.02076413668692112,0.003321716794744134
0.107,-14.958795672620791,2.9705253293903806,18.777357064770296,0.13600954540075874,0.48594630594455335,0.9597377518242798,18.211198806762695,-2.434615135192871,3.030551098959222e-08,7.205797103113893,26.625675324169862,27.7349701411371,0.9871755242347717,0.1582188606262207,-0.020976711064577103,0.0033620279282331467
0.1075,-15.257715445551888,2.932115200040528,18.62417005644393,0.13665556262522485,0.4853943053231472,0.9592213315240301,18.24439239501953,-2.459465742111206,8.920108207632893e-09,7.2443917721575275,26.609546821727797,27.73097677863357,0.987125039100647,0.15850408375263214,-0.02118981070816517,0.0034024782944470644
0.108,-15.55747500988149,2.893391898299956,18.469889309517345,0.13729690856333207,0.4848419073977596,0.9587041528546559,18.27720832824707,-2.4843780994415283,3.570315598722118e-08,7.282791033570942,26.593402023025853,27.72697524861875,0.9870750904083252,0.15878598392009735,-0.021403424441814423,0.003443065332248807
0.1085,-15.858065606180165,2.8543749026354455,18.314533972335084,0.13793352859397504,0.4842891494220727,0.9581862723944641,18.30963897705078,-2.5093493461608887,-2.410403610042522e-08,7.32099133901573,26.577241699121696,27.722964289246512,0.9870253801345825,0.15906457602977753,-0.02161753736436367,0.003483785083517432
0.109,-16.15947831186647,2.8150842196135097,18.158123106718506,0.13856536880514767,0.4837360659258943,0.9576677452303698,18.34168815612793,-2.5343782901763916,1.4204564635633687e-08,7.358989177814832,26.561066532424963,27.718942545582482,0.9869760870933533,0.15933987498283386,-0.021832136437296867,0.0035246345214545727
0.1095,-16.461704059172213,2.775540363666117,18.000675675495454,0.13919237603382048,0.483182688767123,0.9571486250211622,18.373363494873047,-2.5594639778137207,-2.685323963191877e-09,7.396781079110632,26.544877116972405,27.71490857126955,0.9869272708892822,0.15961189568042755,-0.022047214210033417,0.00356560992076993
0.11,-16.764733652894606,2.735764336281743,17.842210530550048,0.13981449790775022,0.48262904718639443,0.9566289640636322,18.40465545654297,-2.584604501724243,2.170450841276761e-08,7.434363614084284,26.528673958760507,27.710860830288038,0.9868787527084351,0.1598806232213974,-0.022262753918766975,0.0036067075561732054
0.1105,-17.068557787912752,2.6957776046499595,17.682746401388986,0.1404316828892453,0.48207516786431365,0.9561088133614485,18.43557357788086,-2.6097981929779053,-1.3772250895272009e-08,7.471733398237889,26.51245747613432,27.706797698809794,0.9868305921554565,0.160146102309227,-0.0224787425249815,0.0036479239352047443
0.111,-17.37316706644723,2.655602079788094,17.52230188422,0.1410438803208953,0.48152107498118063,0.9555882226966937,18.466121673583984,-2.6350440979003906,1.3112134711334988e-09,7.508887093740182,26.496228000231003,27.702717467144574,0.986782968044281,0.16040834784507751,-0.02269517071545124,0.0036892557982355356
0.1115,-17.678552015041536,2.615260094178854,17.360895431536306,0.14165104047327431,0.48096679027911027,0.9550672407039281,18.496294021606445,-2.6603400707244873,4.100618955504842e-09,7.545821411836866,26.47998577547725,27.698618341778143,0.9867356419563293,0.16066734492778778,-0.02291201986372471,0.00373069872148335
0.112,-17.984703101244918,2.5747743789480904,17.198545342199598,0.14225311459461312,0.48041233312644827,0.9545459149466982,18.52609634399414,-2.6856846809387207,7.427644610480399e-10,7.582533115325786,26.463730960138516,27.69449844749991,0.9866886734962463,0.16092313826084137,-0.023129278793931007,0.0037722496781498194
0.1125,-18.29161074997643,2.534168040612001,17.035269752013136,0.14285005496243416,0.47985772058437864,0.9540242919963555,18.555530548095703,-2.7110767364501953,-2.7577264916089916e-08,7.6190190210974205,26.44746362691912,27.69035582961895,0.9866422414779663,0.16117572784423828,-0.02334693633019924,0.0038139044772833586
0.113,-18.599265359550696,2.4934645374234177,16.871086624774936,0.1434418149371311,0.47930296747561274,0.9535024175130861,18.584592819213867,-2.73651385307312,1.2056803555537954e-08,7.65527600274042,26.43118376361089,27.686188456266063,0.9865961074829102,0.16142511367797852,-0.02356497384607792,0.0038556596264243126
0.1135,-18.907657317346334,2.4526876553468164,16.7060137438003,0.14402834901747116,0.47874808645506434,0.9529803363290228,18.613292694091797,-2.7619946002960205,2.1899971613947855e-08,7.69130099321203,26.414891273789717,27.681994220780535,0.9865503311157227,0.16167132556438446,-0.023783380165696144,0.0038975109346210957
0.114,-19.21677701509826,2.4118614836918857,16.54006870390146,0.1446096128979875,0.4781930880823901,0.9524580925333352,18.64162826538086,-2.7875185012817383,3.694528771802652e-08,7.727090987572528,26.398585977557318,27.67777094417878,0.9865050911903381,0.1619143784046173,-0.02400214783847332,0.003939455840736628
0.1145,-19.52661486379597,2.3710103904354347,16.373268903811336,0.14518556352822354,0.4776379808962872,0.951935729559159,18.66959571838379,-2.813082456588745,-3.726246688984247e-08,7.762643045782932,26.38226761232718,27.673516377702978,0.9864600896835327,0.16215427219867706,-0.024221254512667656,0.003981488756835461
0.115,-19.837161308169946,2.3301589972613783,16.205631539037295,0.14575615917378296,0.4770827714904396,0.9514132902722606,18.697202682495117,-2.838686466217041,-3.072214838084619e-08,7.79795429556451,26.365935833652568,27.66922820544698,0.9864156246185303,0.16239102184772491,-0.024440694600343704,0.004023607354611158
0.1155,-20.148406840749413,2.289332154348475,16.03717359512991,0.1463213594791292,0.4765274645909925,0.9508908170613003,18.72444725036621,-2.8643269538879395,-1.4187547137112233e-08,7.833021935318574,26.349590216094917,27.664904047056925,0.9863714575767517,0.16262464225292206,-0.024660443887114525,0.004065806977450848
0.116,-20.460342015474563,2.2485549149352693,15.867911841350729,0.14688112553207552,0.47597206313544294,0.9503683519295734,18.751333236694336,-2.8900034427642822,-2.8654481454282177e-08,7.8678432371046645,26.333230254130797,27.6605414605037,0.9863277077674866,0.1628551483154297,-0.02488049492239952,0.004108083434402943
0.1165,-20.772957460847266,2.207852509691588,15.69786282472267,0.14743541992989162,0.4754165683528265,0.949845936588101,18.777862548828125,-2.9157142639160156,1.6268737468294603e-08,7.902415549674775,26.316855363095534,27.656137944924232,0.9862844347953796,0.163082554936409,-0.025100836530327797,0.004150434397161007
0.117,-21.08624389260461,2.1672503209256204,15.527042864445244,0.14798420684695093,0.4748609798450812,0.9493236125499399,18.804031372070312,-2.9414570331573486,-2.7388600276623265e-09,7.936736301561048,26.300464880161606,27.65169094352847,0.9862414598464966,0.16330686211585999,-0.025321446359157562,0.004192853346467018
0.11750000000000001,-21.400192125900293,2.1267738566553542,15.35546804665698,0.14852745210383161,0.47430529566947155,0.9488014212255789,18.829845428466797,-2.9672303199768066,8.541301355080577e-08,7.970803004214025,26.284058065350184,27.64719784656886,0.986198902130127,0.16352808475494385,-0.02554231323301792,0.004235338419675827
0.11800000000000001,-21.714793086979082,2.0864487245728167,15.183154219526152,0.1490651232377769,0.4737495124219498,0.9482794040193052,18.855310440063477,-2.9930336475372314,5.5352220584836687e-08,8.004613255188021,26.267634102573446,27.64265599436844,0.9861568212509155,0.16374626755714417,-0.02576342783868313,0.0042778849601745605
0.11850000000000001,-22.030037824330282,2.046300605929148,15.010116988650772,0.1495971895744119,0.4731936253213308,0.9477576024263762,18.88041877746582,-3.0188629627227783,-7.763840237373643e-09,8.03816474137014,26.251192100706458,27.638062680404563,0.986115038394928,0.16396138072013855,-0.025984767824411392,0.004320488311350346
0.11900000000000001,-22.345917519306788,2.006355229368161,14.836371712748534,0.1501236223006075,0.47263762829416195,0.9472360581308944,18.905176162719727,-3.0447182655334473,1.7948259767308627e-08,8.071455242248744,26.234731094686175,27.63341515444383,0.9860736727714539,0.1641734540462494,-0.026206322014331818,0.004363145213574171
0.11950000000000001,-22.662423496196407,1.9666383447355273,14.661933499616431,0.15064439453837236,0.47208151406016524,0.9467148131042356,18.92958641052246,-3.0705981254577637,-3.903728185150612e-08,8.10448263321706,26.21825004663609,27.628710625724707,0.9860327839851379,0.16438250243663788,-0.02642808109521866,0.004405851475894451
0.12,-22.979547231733022,1.9271756968902465,14.48681720234019,0.1511594814196479,0.47152527421812146,0.946193909703886,18.95364761352539,-3.0964996814727783,-1.3525058406571588e-08,8.137244888907286,26.20174784701452,27.623946266183562,0.9859922528266907,0.1645885407924652,-0.026650022715330124,0.004448603373020887
0.1205,-23.29728036403547,1.8879929995444935,14.311037415733201,0.15166886016187162,0.4709688993320841,0.9456733907725668,18.977357864379883,-3.1224205493927,-2.947632005145806e-08,8.169740086549945,26.185223315784913,27.619119213720058,0.9859520196914673,0.1647915542125702,-0.02687213197350502,0.004491395317018032
0.121,-23.615614700962475,1.8491159091573843,14.134608472984036,0.15217251014416797,0.47041237901778543,0.9451532997374922,19.000730514526367,-3.1483609676361084,4.477202608654807e-08,8.201966409353169,26.16867520360618,27.614226575497344,0.9859123229980469,0.1649916023015976,-0.027094397693872452,0.004534224979579449
0.1215,-23.93454222787261,1.8105699989076078,13.957544442492608,0.15267041298401862,0.46985570202911914,0.9446336807096308,19.023752212524414,-3.1743173599243164,-5.690811377689897e-09,8.23392214989608,26.152102193041337,27.60926543127251,0.9858729243278503,0.16518865525722504,-0.027316801249980927,0.004577086307108402
0.122,-24.254055114778712,1.7723807327692738,13.779859124873926,0.15316255261425457,0.46929885634457513,0.9441145785828308,19.04643440246582,-3.200289487838745,-2.5619231180940005e-08,8.265605713530002,26.135502899782924,27.604232836752924,0.985834002494812,0.1653827577829361,-0.027539333328604698,0.0046199774369597435
0.1225,-24.574145722886776,1.7345734397146368,13.60156605010938,0.153648915360209,0.4687418292534984,0.9435960391326569,19.06877899169922,-3.2262752056121826,-7.349125041855586e-08,8.2970156217812,26.11887587389346,27.599125826973513,0.9857956171035767,0.16557390987873077,-0.027761979028582573,0.0046628923155367374
0.123,-24.894806610509598,1.6971732880667372,13.42267847482528,0.1541294900168592,0.4681846074420529,0.9430781091148082,19.090776443481445,-3.2522714138031006,-6.153296538968789e-08,8.32815051574812,26.102219601059346,27.593941419690232,0.9857574105262756,0.16576209664344788,-0.02798471227288246,0.004705827217549086
0.1235,-25.21603053834657,1.6602052600242843,13.24320937967863,0.15460426792578322,0.46762717707876816,0.9425608363629756,19.11244010925293,-3.27827787399292,-5.356563903546885e-08,8.35900915948604,26.085532503856644,27.588676618784664,0.9857197403907776,0.16594736278057098,-0.028207529336214066,0.0047487784177064896
0.124,-25.53781047412077,1.62369412638041,13.06317146683052,0.15507324305174658,0.4670695238995453,0.942044269885989,19.133760452270508,-3.304291009902954,1.6434775318430184e-08,8.38959044337158,26.06881294302745,27.58332841767486,0.9856823086738586,0.1661296784877777,-0.028430406004190445,0.004791740793734789
0.1245,-25.860139596565975,1.5876644214561981,12.88257715748808,0.15553641205873167,0.4665116332920025,0.9415284599641193,19.15475082397461,-3.3303117752075195,1.4614507826138379e-08,8.419893387439238,26.052059218765184,27.57789380272708,0.9856455326080322,0.16630911827087402,-0.0286533385515213,0.0048347110860049725
0.125,-26.1830112987557,1.5521404182691645,12.701438589496098,0.15599377438521508,0.4659534903790457,0.9410134582443858,19.175397872924805,-3.356334924697876,-3.914986379527363e-08,8.449917144681848,26.035269572008026,27.572369756663655,0.9856089353561401,0.16648562252521515,-0.028876297175884247,0.004877683240920305
0.1255,-26.50641919076816,1.5171461039561105,12.519767614960134,0.15644533231849356,0.465395080101539,0.94049931783474,19.195714950561523,-3.382361650466919,-4.328579805701338e-08,8.479661004306449,26.018442185738504,27.56675326196102,0.985572874546051,0.16665925085544586,-0.029099280014634132,0.004920654930174351
0.126,-26.83035710168044,1.4827051554690356,12.337575797883835,0.15689109106785226,0.46483638729996585,0.9399860933969609,19.215696334838867,-3.4083878993988037,4.317535129416683e-08,8.509124394936853,26.001575186288974,27.561041304233388,0.9855371117591858,0.16682998836040497,-0.02932226099073887,0.0049636210314929485
0.1265,-27.154819080886632,1.4488409155620563,12.15487441180316,0.15733105883636686,0.4642773967949636,0.9394738412381458,19.235347747802734,-3.4344136714935303,1.3726069170161281e-08,8.538306887753816,25.984666644651238,27.555230875596045,0.9855018258094788,0.16699786484241486,-0.029545234516263008,0.005006577353924513
0.127,-27.479799398734684,1.415576369086506,11.971674437401637,0.15776524689112703,0.46371809346662113,0.9389626194006279,19.254669189453125,-3.4604361057281494,8.34516455938683e-09,8.567208199563765,25.96771457779005,27.549318978003473,0.9854669570922852,0.16716288030147552,-0.02976818010210991,0.005049519706517458
0.1275,-27.805292546477745,1.3829341196106724,11.787986560090882,0.1581936696316616,0.46315846233243246,0.9384524877502065,19.273658752441406,-3.4864535331726074,2.492703998768775e-08,8.595828195786176,25.95071694995913,27.543302626556443,0.9854323863983154,0.16732503473758698,-0.02999108098447323,0.005092443432658911
0.128,-28.13129323553609,1.3509363663798526,11.603821167541978,0.1586163446563475,0.4625984886237932,0.9379435080625207,19.29232406616211,-3.512464761734009,1.0667676741960008e-09,8.624166893350282,25.93367167401949,27.537178852773085,0.9853983521461487,0.1674843728542328,-0.03021392598748207,0.005135344807058573
0.1285,-28.45779639606668,1.31960488163165,11.41918834715381,0.15903329282657763,0.46203815786094654,0.9374357441074515,19.310657501220703,-3.538466691970825,2.4882119475932996e-08,8.652224463490812,25.9165766127593,27.53094470781841,0.9853646159172058,0.16764086484909058,-0.030436694622039795,0.005178219173103571
0.129,-28.784797174837905,1.28896098828066,11.23409788344571,0.15944453832846237,0.4614774559262621,0.9369292617313892,19.32866668701172,-3.5644590854644775,6.989080425512384e-10,8.680001234432835,25.899429580214708,27.524597265686804,0.9853313565254211,0.16779455542564392,-0.030659379437565804,0.005221062805503607
0.1295,-29.11229093240761,1.2590255379859787,11.04855925536254,0.1598501087318357,0.46091636913575723,0.9364241289372519,19.346351623535156,-3.5904386043548584,4.955368027026452e-08,8.707497693955116,25.882228342991176,27.51813362633201,0.9852983951568604,0.16794541478157043,-0.030881958082318306,0.005263871047645807
0.13,-29.440273239603822,1.2298188896142033,10.8625816334816,0.16025003504633797,0.4603548843087576,0.9359204159620933,19.36371421813965,-3.6164052486419678,-4.487348448378725e-08,8.734714491821727,25.86497062158516,27.511550918739417,0.9852659702301025,0.1680935025215149,-0.031104423105716705,0.005306639242917299
0.1305,-29.768739873307194,1.201360888109964,10.676173877111562,0.16064435177434383,0.45979298883560277,0.9354181953521844,19.380748748779297,-3.64235520362854,1.337796895484189e-08,8.761652442071053,25.84765409170557,27.504846303934944,0.9852338433265686,0.1682387888431549,-0.03132674843072891,0.005349363666027784
0.131,-30.09768681153643,1.1736708437852719,10.48934453127496,0.16103309696050538,0.45923067074330676,0.9349175420354185,19.397470474243164,-3.6682887077331543,-8.152849773068738e-08,8.788312525151591,25.830276385595305,27.498016977925555,0.9852021932601929,0.16838131844997406,-0.03154893219470978,0.005392040591686964
0.1315,-30.42711022783674,1.1467675120383463,10.302101823566662,0.16141631223767977,0.45866791875908924,0.9344185333909129,19.413869857788086,-3.6942028999328613,2.2957994616490396e-08,8.814695889893569,25.812835093352902,27.491060174566286,0.9851709604263306,0.16852107644081116,-0.03177094832062721,0.005434665363281965
0.132,-30.75700648497415,1.1206690735119411,10.114453660882235,0.16179404286901428,0.45810472237168653,0.9339212493156763,19.429943084716797,-3.720095634460449,7.314435168659372e-10,8.840803855305651,25.79532776425407,27.483973168348275,0.9851400256156921,0.168658047914505,-0.03199278563261032,0.00547723239287734
0.1325,-31.08737212793755,1.095393114700548,9.926407626010889,0.16216633778595801,0.4575410718903717,0.9334257722882061,19.445707321166992,-3.745966672897339,-4.6155266275604845e-09,8.866637912185624,25.77775190807403,27.47675327710338,0.9851096868515015,0.16879230737686157,-0.032214436680078506,0.00551973981782794
0.133,-31.418203876252267,1.0709566090153018,9.7379709740893,0.1625332496219774,0.4569769585015996,0.9329321874288887,19.461145401000977,-3.7718117237091064,2.7513761935438197e-08,8.892199724534278,25.760104996410615,27.4693978646201,0.9850795269012451,0.16892379522323608,-0.03243587538599968,0.005562181584537029
0.1335,-31.74949861560918,1.0473758983148724,9.549150628913669,0.16289483474174882,0.4564123743232123,0.9324405825570796,19.47627830505371,-3.7976326942443848,-1.569418195401795e-08,8.917491130761324,25.74238446400895,27.461904343166264,0.9850500226020813,0.1690525859594345,-0.03265709802508354,0.005604554899036884
0.134,-32.08125338881427,1.0246666749101099,9.359953179108778,0.16325115326561113,0.4558473124561257,0.9319510482447283,19.491085052490234,-3.8234243392944336,5.771261868403599e-08,8.942514144672682,25.724587710088073,27.454270175913678,0.9850206971168518,0.16917861998081207,-0.032878078520298004,0.005646854173392057
0.1345,-32.413465386065184,1.0028439640497084,9.170384874153983,0.16360226908905737,0.4552817670334463,0.9314636778664435,19.50558090209961,-3.849186658859253,9.85872095071727e-09,8.967270956227944,25.706712099670476,27.446492879260294,0.9849919080734253,0.16930195689201355,-0.03309880942106247,0.00568907568231225
0.135,-32.74613193456028,0.9819221068936859,8.98045162026747,0.16394824989705595,0.4547157332669464,0.9309785676458513,19.51976203918457,-3.87491774559021,2.050516911822342e-08,8.991763932057586,25.688754964915493,27.438570025045728,0.9849634170532227,0.16942256689071655,-0.033319275826215744,0.005731215234845877
0.1355,-33.07925048744908,0.9619147439810598,8.790158976151199,0.16428916717298994,0.4541492074908493,0.9304958166981514,19.53363037109375,-3.9006166458129883,-8.092332137721314e-09,9.015995615728961,25.67071360645732,27.43049924265573,0.984935462474823,0.16954049468040466,-0.03353946655988693,0.005773269105702639
0.136,-33.412818612131225,0.9428347991976695,8.599512148600446,0.16462509620201263,0.453582187202868,0.930015527068748,19.54719352722168,-3.926281213760376,1.83388291219444e-08,9.039968727750642,25.652585294748707,27.422278221011506,0.9849079251289368,0.16965574026107788,-0.03375936672091484,0.005815234500914812
0.1365,-33.74683397791384,0.9246944642497563,8.40851598798294,0.16495611606862168,0.4530146711024524,0.9295378037678373,19.56043815612793,-3.9519083499908447,-1.569035568138588e-08,9.06368616530478,25.634367271411676,27.41390471044025,0.9848806858062744,0.169768288731575,-0.03397895768284798,0.005857104901224375
0.137,-34.08129434303724,0.9075051836485771,8.217174983593946,0.16528230964826093,0.4524466591262047,0.9290627548008525,19.57337760925293,-3.9774985313415527,2.0220340957166627e-08,9.087151001697247,25.616056750596474,27.40537652442317,0.9848539233207703,0.16987816989421844,-0.03419823199510574,0.00589887797832489
0.1375,-34.41619754107946,0.8912776402110274,8.025493258894741,0.1656037635927646,0.4518781524804148,0.9285904911946499,19.58600425720215,-4.003048896789551,1.912078673171891e-08,9.110366485515643,25.597650920349775,27.396691541217194,0.98482745885849,0.16998538374900818,-0.03441717103123665,0.005940549541264772
0.138,-34.7515414667521,0.8760217410810179,7.8334745666433605,0.16592056830946864,0.45130915367069757,0.9281211270193391,19.598325729370117,-4.02855920791626,5.0385231986638246e-08,9.133336039485537,25.57914694399423,27.38784770534769,0.9848015308380127,0.1700899451971054,-0.034635767340660095,0.005982115399092436
0.1385,-35.08732406109948,0.8617466042760967,7.6411222839274595,0.16623281793381975,0.45073966652868597,0.9276547794056605,19.610340118408203,-4.054027080535889,7.053850392679806e-09,9.156063259015456,25.560541961519924,27.37884302896829,0.984775960445404,0.17019185423851013,-0.03485400602221489,0.006023570895195007
0.139,-35.42354329611489,0.8484605457636567,7.448439407110376,0.1665406102953214,0.45016969623576636,0.927191568557802,19.622045516967773,-4.079450607299805,-5.837377869966076e-08,9.17855191042169,25.541833090990195,27.36967559308569,0.9847508072853088,0.17029112577438354,-0.03507187217473984,0.006064913235604763
0.1395,-35.760197158788564,0.8361710670709341,7.255428546702775,0.16684404687666812,0.4495992493438369,0.9267316177615784,19.63344955444336,-4.10482931137085,-2.5440483497618516e-08,9.200805928824112,25.523017429962994,27.36034354864646,0.984726071357727,0.17038775980472565,-0.035289354622364044,0.0061061386950314045
0.14,-36.09728363460233,0.8248848434329455,7.0620919221731056,0.16714323276592308,0.44902833379306295,0.926275053387879,19.644546508789062,-4.130160808563232,1.3154636491208294e-08,9.222829415704686,25.504092056929224,27.350845117483022,0.9847017526626587,0.17048177123069763,-0.035506442189216614,0.006147243082523346
0.1405,-36.43480069048763,0.8146077124825254,6.868431356711318,0.16743827660161228,0.4484569589266354,0.9258220048912889,19.65534019470215,-4.155444622039795,-3.528689163090348e-08,9.244626636120982,25.48505403277071,27.3411785931177,0.9846778512001038,0.1705731451511383,-0.03572312369942665,0.006188222207129002
0.14100000000000001,-36.772746257263684,0.8053446634866246,6.674448271961374,0.16772929051061408,0.4478851355025121,0.9253726048038313,19.665822982788086,-4.18067741394043,-2.7764224697079953e-08,9.266202015567066,25.465900402238372,27.331342341421486,0.9846542477607727,0.17066188156604767,-0.035939380526542664,0.006229071877896786
0.14150000000000001,-37.111118211574016,0.7970998271330532,6.480143682738856,0.16801639003873375,0.4473128757021491,0.9249269887237271,19.67601203918457,-4.205860614776611,-1.91256734893841e-08,9.287560136475033,25.446628195453403,27.32133480112689,0.9846312999725342,0.1707480400800705,-0.03615521267056465,0.006269790232181549
0.14200000000000002,-37.44991435734049,0.7898764658719238,6.285518191751167,0.16829969407386927,0.4467401931362242,0.9244852952991154,19.68589210510254,-4.230989933013916,-1.3134201282127833e-08,9.308705734350765,25.427234429432808,27.31115448419294,0.98460853099823,0.170831561088562,-0.036370594054460526,0.006310371216386557
0.14250000000000002,-37.789132406754376,0.7836769648161465,6.090571984338472,0.16857932476168125,0.4461671028473598,0.924047666206677,19.69547462463379,-4.25606632232666,-6.38032346955697e-08,9.329643693538033,25.40771610964114,27.300799976020876,0.9845862984657288,0.170912504196167,-0.036585528403520584,0.0063508134335279465
0.14300000000000002,-38.128769960825394,0.7785028232054556,5.89530482325456,0.16885540741369584,0.44559362130986285,0.923614246125078,19.704755783081055,-4.281088352203369,-2.867084702984357e-08,9.35037904260587,25.388070231570833,27.29026993552028,0.984564483165741,0.17099085450172424,-0.036799997091293335,0.006391112692654133
0.14350000000000002,-38.468824489510396,0.7743546464386357,5.699716043507463,0.16912807040778086,0.4450197664264927,0.9231851827032092,19.713735580444336,-4.306052207946777,7.034275029127457e-08,9.370916949354358,25.368293782352072,27.27956309502376,0.984542965888977,0.17106661200523376,-0.037013985216617584,0.006431265734136105
0.14400000000000002,-38.80929331144424,0.7712321386788086,5.503804547280379,0.16939744508094845,0.44444555752228865,0.9227606265231412,19.7224178314209,-4.330959796905518,-4.894225025253718e-09,9.391262715435126,25.348383742395157,27.268678260050894,0.9845219850540161,0.17113980650901794,-0.03722749277949333,0.006471268367022276
0.1445,-39.15017357329599,0.7691340960369234,5.307568798954206,0.16966366561445392,0.443871015335478,0.9223407310577708,19.730796813964844,-4.355807781219482,1.7697782794812156e-08,9.41142177058316,25.32833708706653,27.257614308920353,0.9845012426376343,0.1712104082107544,-0.037440501153469086,0.006511117797344923
0.145,-39.49146222877496,0.7680584003388515,5.11100682025344,0.16992686891116793,0.4432961620054994,0.9219256526231151,19.7388858795166,-4.380598068237305,-7.27376985310002e-08,9.431399666457278,25.308150788400535,27.246370192210385,0.984481155872345,0.1712784618139267,-0.037653014063835144,0.006550810765475035
0.1455,-39.83315601731151,0.768002013481759,4.914116185537842,0.17018719446522076,0.44272102105817585,0.9215155503252204,19.74666976928711,-4.405325412750244,5.6662983638489095e-08,9.451202070087476,25.287821816848584,27.234944932067858,0.9844613671302795,0.17134393751621246,-0.03786500543355942,0.006590344477444887
0.146,-40.17525144243854,0.7689609723857109,4.716894017262657,0.17044478422392884,0.4421456173880849,0.9211105860016539,19.754161834716797,-4.429991245269775,-2.4973989098953098e-08,9.470834756928294,25.267347143068086,27.223337621366746,0.9844419956207275,0.1714068502187729,-0.038076478987932205,0.006629714276641607
0.1465,-40.517744749900075,0.7709303845467539,4.519336981630701,0.17069978244202874,0.44156997723815583,0.9207109241575763,19.761350631713867,-4.454594612121582,-3.99632256176119e-08,9.490303603517694,25.24672373975159,27.21154742271555,0.984423041343689,0.17146721482276917,-0.03828741982579231,0.006668918300420046
0.147,-40.860631905514985,0.7739044241979702,4.321441284459876,0.17095233552826125,0.4409941281765667,0.9203167318963585,19.768247604370117,-4.479132652282715,-2.9255303957143042e-08,9.509614579742358,25.225948583499523,27.199573567316364,0.9844045042991638,0.1715250313282013,-0.03849782049655914,0.006707953289151192
0.1475,-41.20390857282326,0.7778763290853045,4.123202667290025,0.17120259188436268,0.44041809907097534,0.9199281788447489,19.774850845336914,-4.503606796264648,1.8863595130369504e-08,9.528773740710905,25.20501865673686,27.18741535367537,0.9843863844871521,0.17158029973506927,-0.0387076735496521,0.006746816448867321
0.148,-41.54757009054422,0.7828383978653353,3.9246164037532707,0.1714507017365371,0.43984192006015427,0.9195454370725958,19.78115463256836,-4.528013706207275,-2.791757225395486e-08,9.547787218237305,25.183930949675645,27.175072146166755,0.9843685626983643,0.1716330200433731,-0.03891696780920029,0.006785503588616848
0.1485,-41.891611449876294,0.7887819881325296,3.7256772962319533,0.1716968169594984,0.439265622523093,0.9191686810071154,19.78717041015625,-4.5523552894592285,1.0606362010889825e-08,9.56666121193813,25.162682462325417,27.162543373452102,0.984351396560669,0.17168323695659637,-0.039125703275203705,0.006824013777077198
0.149,-42.23602727166845,0.7956975150839082,3.52637967282843,0.17194109089318801,0.43868923904563,0.9187980873417361,19.792884826660156,-4.576627254486084,3.924141012134896e-08,9.585401979947656,25.141270206552083,27.14982852675649,0.9843344688415527,0.1717308908700943,-0.03933386132121086,0.006862341426312923
0.1495,-42.580811783494255,0.8035744508294337,3.326717384670914,0.17218367815228985,0.4381128033846911,0.9184338349395262,19.79831314086914,-4.600831985473633,3.1796545840734325e-08,9.604015829256362,25.119691208187312,27.136927158004166,0.9843180775642395,0.17177604138851166,-0.039541445672512054,0.006900486070662737
0.15,-42.92595879666017,0.8124013243568191,3.1266838035793953,0.1724247344286803,0.43753635043020395,0.9180761047312431,19.80344009399414,-4.624965667724609,-1.966424711952186e-08,9.622509105678896,25.09794250918909,27.123838877815505,0.9843019247055054,0.17181864380836487,-0.03974844142794609,0.006938443519175053
0.1505,-43.27146168318042,0.8221657221598587,2.9262718201155336,0.17266441628696733,0.4369599161647701,0.9177250796080284,19.80828094482422,-4.64902925491333,2.1816799034013457e-08,9.640888183458925,25.076021169854847,27.11056335336842,0.9842863082885742,0.1718587577342987,-0.03995485231280327,0.006976213306188583
0.151,-43.617313352750735,0.8328542895397888,2.7254738420400346,0.17290288095329093,0.4363835376211787,0.9173809443088035,19.812828063964844,-4.673023700714111,-3.2222867929476706e-08,9.659159454519118,25.053924271088047,27.097100306126624,0.9842711091041565,0.17189635336399078,-0.04016067087650299,0.007013791706413031
0.1515,-43.963506229754614,0.8444527325895929,2.524281793200797,0.1731402860975727,0.4358072528378378,0.9170438853024048,19.81708335876465,-4.696946620941162,-1.054488674157028e-08,9.677329317365784,25.03164891671867,27.083449509437788,0.9842563271522522,0.1719314306974411,-0.04036588966846466,0.007051176391541958
0.152,-44.31003223033562,0.8569458208715032,2.3226871128745428,0.17337678960941966,0.435231100812224,0.9167140906645206,19.821046829223633,-4.720797061920166,-9.63960467004199e-09,9.695404165658555,25.009192235878913,27.06961078600513,0.9842419624328613,0.17196401953697205,-0.04057050123810768,0.0070883650332689285
0.1525,-44.656882739570165,0.8703173907982276,2.1206807555842215,0.17361254936790244,0.43465512145243257,0.9163917499494995,19.824722290039062,-4.744575023651123,-1.811826599862343e-08,9.713390376456646,24.986551385433856,27.055584005235268,0.9842280149459839,0.17199410498142242,-0.040774501860141754,0.007125354837626219
0.153,-45.00404858877479,0.8845503497287204,1.9182531914138712,0.1738477230054494,0.43407935552692484,0.9160770540570942,19.828105926513672,-4.768280029296875,-2.632010520642325e-08,9.731294298154541,24.963723552467847,27.041369080466474,0.9842144846916199,0.17202168703079224,-0.04097789153456688,0.007162143941968679
0.1535,-45.35152003298375,0.8996266807895804,1.7153944068419564,0.1740824676661073,0.43350384461257463,0.9157701950942327,19.831201553344727,-4.7919111251831055,-2.6297959365706447e-08,9.749122238120576,24.940705956826676,27.026965966080763,0.9842014312744141,0.17204678058624268,-0.04118065908551216,0.007198729086667299
0.154,-45.69928672863068,0.9155274484334046,1.51209390611354,0.17431693975843615,0.4329286310411043,0.9154713662318953,19.834003448486328,-4.81546688079834,5.6848868723591295e-08,9.766880450053227,24.917495853715334,27.012374654503752,0.9841886758804321,0.17206935584545135,-0.0413828007876873,0.007235108874738216
0.1545,-46.04733771147114,0.9322328047456283,1.3083407131708091,0.17455129470332612,0.4323537578440152,0.9151807615572033,19.83651351928711,-4.838949680328369,1.0921999660240544e-07,9.78457512107099,24.8940905363509,26.997595173096236,0.9841764569282532,0.17208945751190186,-0.0415843203663826,0.007271281443536282
0.155,-46.395661374780296,0.9497219965116356,1.1041233741606882,0.17478568667702984,0.43177926869611616,0.9148985759208168,19.83873748779297,-4.862355709075928,-5.258010915554223e-08,9.802212358552477,24.870487338670507,26.982627580941816,0.9841644763946533,0.17210707068443298,-0.041785210371017456,0.007307243533432484
0.1555,-46.744245447862,0.9679733730560128,0.8994299605373279,0.17502026834972795,0.4312052078577496,0.9146250047797575,19.840673446655273,-4.885687828063965,-1.4091796174398041e-08,9.819798176744836,24.846683638092994,26.967471965534617,0.9841530323028564,0.17212221026420593,-0.04198547080159187,0.007342996075749397
0.156,-47.09307697490479,0.986964394866011,0.6942480727763278,0.17525519061995284,0.4306316201158252,0.9143602440357724,19.842327117919922,-4.908945560455322,2.3866746801104455e-08,9.837338483159273,24.82267685833393,26.952128439371837,0.9841421246528625,0.1721348911523819,-0.04218510165810585,0.007378535810858011
0.1565,-47.442142294220574,1.0066716430113152,0.48856484471648315,0.17549060234521557,0.4300585507237675,0.9141044898693749,19.843685150146484,-4.932124614715576,9.017161772817417e-08,9.854839064773705,24.79846447227223,26.93659713645546,0.984131395816803,0.1721450686454773,-0.04238408803939819,0.007413859944790602
0.157,-47.7914270179015,1.0270708293722801,0.28236694854381145,0.17572665006918858,0.4294860453404826,0.9138579385696809,19.84476089477539,-4.95522928237915,-4.1335265876796257e-08,9.872305574063486,24.774044004867438,26.92087820870809,0.9841212630271912,0.1721528023481369,-0.042582444846630096,0.007448967080563307
0.1575,-48.140916011931,1.0481368076887074,0.07564060043145002,0.1759634777458171,0.4289141499684595,0.9136207863602065,19.845544815063477,-4.97825813293457,1.985596576048465e-08,9.889743514882133,24.749413036125564,26.904971822307566,0.9841115474700928,0.17215804755687714,-0.04278016462922096,0.007483856752514839
0.158,-48.4905933767837,1.0698435854411203,-0.13162843315210843,0.17620122646073752,0.4283429108911148,0.9133932292207574,19.846046447753906,-5.0012102127075195,7.036833693518929e-08,9.907158228214907,24.724569204112065,26.888878153945694,0.9841022491455078,0.17216083407402039,-0.04297724366188049,0.007518526166677475
0.1585,-48.84044242854991,1.092164336576299,-0.3394548284551921,0.17644003415040024,0.4277723746094864,0.9131754627055851,19.846256256103516,-5.024085521697998,6.759583470739017e-08,9.92455487782913,24.699510208008995,26.87259738701556,0.9840932488441467,0.17216116189956665,-0.04317367821931839,0.00755297439172864
0.159,-49.19044568061891,1.1150714150886132,-0.5478536967655077,0.17668003531929932,0.42720258777840087,0.9129676817579587,19.8461856842041,-5.046884059906006,6.656242135250068e-08,9.941938435845806,24.67423381121508,26.85612970773374,0.9840847849845886,0.17215903103351593,-0.04336947575211525,0.007587199565023184
0.1595,-49.540584825955975,1.1385363694684458,-0.756840576034317,0.176921360755725,0.4266335971422146,0.9127700805213412,19.845827102661133,-5.069607257843018,-2.724333292292158e-08,9.95931366825799,24.64873784448491,26.839475301201766,0.9840766787528992,0.17215445637702942,-0.04356463626027107,0.007621200755238533
0.16,-49.890840720006274,1.162529958028614,-0.9664314217948348,0.1771641372464656,0.4260654494702458,0.9125828521473364,19.845184326171875,-5.092252731323242,-4.851758461654754e-08,9.976685120422234,24.623020209105032,26.822634347412905,0.9840689897537231,0.17214743793010712,-0.04375915601849556,0.0076549774967134
0.1605,-50.241193364260496,1.1870221651194313,-1.1766425973689103,0.17740848729089398,0.42549819149200635,0.9124061886006037,19.84425926208496,-5.114823341369629,1.077244604630323e-08,9.994057102550098,24.597078880103165,26.805607017209535,0.9840617775917053,0.17213796079158783,-0.04395303875207901,0.007688527926802635
0.161,-50.59162189051411,1.2119822182425566,-1.3874908633574736,0.17765452881488686,0.4249318698323514,0.9122402804609197,19.843048095703125,-5.137316703796387,8.853525690355468e-10,10.011433675227654,24.570911909487904,26.78839346819762,0.9840549826622009,0.17212603986263275,-0.044146280735731125,0.007721849717199802
0.1615,-50.94210454585405,1.2373786060733138,-1.5989933664117668,0.17790237488502894,0.4243665309466444,0.912085316722601,19.841552734375,-5.159733295440674,-1.756374956585205e-08,10.028818634991282,24.54451742951393,26.77099384062305,0.98404860496521,0.17211167514324188,-0.0443388856947422,0.007754941936582327
0.162,-51.29261867840397,1.2631790974005734,-1.8111676272837895,0.17815213342357014,0.42380222105606397,0.9119414845914839,19.83976936340332,-5.182072639465332,-3.8110609779096194e-08,10.046215499989136,24.517893655970045,26.753408253217245,0.9840425252914429,0.17209486663341522,-0.044530849903821945,0.007787804119288921
0.1625,-51.64314072386025,1.2893507609926222,-2.0240315281559496,0.1784039069246014,0.42323898608314897,0.9118089692796744,19.837703704833984,-5.2043375968933105,-2.2371309249535898e-09,10.063627495757698,24.491038891484816,26.735636799017385,0.9840369820594788,0.17207562923431396,-0.04472218453884125,0.007820435799658298
0.163,-51.99364619284875,1.3158599863967568,-2.237603299251442,0.17865779217193045,0.42267687158769507,0.9116879537982946,19.835357666015625,-5.226526737213135,-6.895773729809207e-09,10.081057541143684,24.46395152884551,26.71767954116781,0.9840318560600281,0.17205394804477692,-0.04491288587450981,0.007852834649384022
0.1635,-52.34410965913265,1.3426725056795,-2.4519015047283634,0.1789138799591389,0.4221159227031079,0.9115786187484411,19.83272933959961,-5.2486395835876465,4.3642596203596895e-09,10.098508234401917,24.436630054325605,26.699536508709368,0.984027087688446,0.17202985286712646,-0.045102957636117935,0.007885001599788666
0.164,-52.69450474870015,1.3697534161134606,-2.6669450278621736,0.17917225481230864,0.42155618407331813,0.9114811421105857,19.829816818237305,-5.270676612854004,-6.542349950677817e-08,10.115981839500035,24.4090730510158,26.681207692363266,0.9840227365493774,0.17200332880020142,-0.04529239982366562,0.007916933856904507
0.1645,-53.044804129760564,1.3970672038158967,-2.8827530555226004,0.17943299471591168,0.4209976997903614,0.9113956990326603,19.826623916625977,-5.292639255523682,-4.961356481203438e-08,10.133480272661304,24.38127920215293,26.662693040316228,0.984018862247467,0.17197437584400177,-0.04548121616244316,0.007948631420731544
0.165,-53.39497950367535,1.4245777683429426,-3.0993450619526217,0.17969617084235548,0.4204405133327238,0.9113224616170633,19.82314682006836,-5.314526557922363,2.594673809142023e-09,10.151005089176767,24.353247294441356,26.643992454014032,0.9840154051780701,0.17194300889968872,-0.04566941037774086,0.00798009429126978
0.1655,-53.7450015968507,1.4522484482424758,-3.3167407918587424,0.17996184728568515,0.41988466750454506,0.9112615987068214,19.81939125061035,-5.336340427398682,-7.741230767521756e-09,10.168557470518593,24.324976221360846,26.62510578397051,0.9840123653411865,0.17190922796726227,-0.045856982469558716,0.008011320605874062
0.166,-54.09484015361707,1.4800420475676361,-3.53496024282345,0.18023008079994018,0.4193302043757866,0.9112132756711794,19.815349578857422,-5.358077526092529,-7.56061311335543e-08,10.186138211785812,24.2964649864548,26.606032825599502,0.9840096235275269,0.17187301814556122,-0.04604393243789673,0.008042308501899242
0.1665,-54.44446393011951,1.507920863351814,-3.754023647052235,0.18050092054266728,0.4187771652234496,0.9111776541908426,19.81103515625,-5.37974214553833,-8.839050735787168e-08,10.203747709514328,24.267712706592807,26.586773315077437,0.9840074181556702,0.17183442413806915,-0.04623027145862579,0.008073060773313046
0.167,-54.793840689242096,1.5358467140446344,-3.9739514524691595,0.18077440782408988,0.41822559047393415,0.9111548920431582,19.80643653869629,-5.401333332061768,-3.734831111046333e-08,10.221385949882416,24.238718615200295,26.56732692524381,0.9840056300163269,0.17179341614246368,-0.04641599580645561,0.008103573694825172
0.1675,-55.14293719658891,1.5637809689070181,-4.194764303176366,0.18105057586243567,0.4176755196466289,0.9111451428874723,19.801557540893555,-5.422849655151367,-8.70598810820411e-08,10.239052497343156,24.20948206544907,26.547693261548055,0.9840040802955627,0.1717499941587448,-0.04660111293196678,0.008133848197758198
0.168,-55.491719217541025,1.5916845783619604,-4.416483019294426,0.18132944954591623,0.41712699129882436,0.9111485560509469,19.796401977539062,-5.444295883178711,-1.6443682682165672e-07,10.256746483714364,24.180002533401844,26.52787185805084,0.9840031862258911,0.17170420289039612,-0.0467856302857399,0.008163884282112122
0.1685,-55.84015151541024,1.6195181052961083,-4.639128576201885,0.1816110452018561,0.41658004297201756,0.9111652763150897,19.790969848632812,-5.465668201446533,-6.388194151440985e-08,10.274466597756835,24.150279621103124,26.507862173487954,0.9840025901794434,0.17165601253509521,-0.046969544142484665,0.008193681947886944
0.169,-56.18819785070685,1.647241757305634,-4.862722083193717,0.1818953703734609,0.41603471113969853,0.9111954437032755,19.785253524780273,-5.486968517303467,-9.140173773403149e-08,10.29221107527071,24.120313059609604,26.487663587405454,0.984002411365509,0.1716054230928421,-0.04715285822749138,0.008223237469792366
0.1695,-56.53582098153822,1.6748154198782164,-5.087284761579903,0.18218242360471035,0.4154910311566951,0.9112391932695313,19.779260635375977,-5.508194923400879,6.944475217096624e-08,10.309977689739435,24.090102711952614,26.46727539637514,0.9840025305747986,0.17155243456363678,-0.04733556881546974,0.008252552710473537
0.17,-56.88298266515352,1.7021986905012514,-5.312837922246558,0.18247219423385555,0.41494903721014004,0.9112966548888534,19.772991180419922,-5.529352188110352,9.110074472573615e-09,10.327763743550038,24.059648576024806,26.446696810298857,0.9840031862258911,0.17149707674980164,-0.047517694532871246,0.008281625807285309
0.1705,-57.22964366064848,1.7293509136845862,-5.539402942703412,0.18276466219599596,0.41440876227213896,0.9113679530493377,19.766447067260742,-5.550437927246094,-6.119811502003358e-08,10.345566059817802,24.028950787383806,26.425926948811323,0.9840042591094971,0.17143934965133667,-0.04769923537969589,0.008310457691550255
0.171,-57.575763732842425,1.756231216884278,-5.767001243642762,0.18305979783519777,0.4138702380541975,0.9114532066463971,19.759624481201172,-5.571453094482422,1.809868521718272e-08,10.36338097484225,23.998009621964705,26.404964837790438,0.9840056896209717,0.17137925326824188,-0.04788019135594368,0.00833904929459095
0.1715,-57.92130165733797,1.7827985473120334,-5.995654265036068,0.18335756172661435,0.41333349496347527,0.9115525287793393,19.752531051635742,-5.592398166656494,1.0024941587971625e-07,10.381204331220786,23.96682549869402,26.38380940598519,0.9840075373649597,0.17131678760051727,-0.04806056246161461,0.008367396891117096
0.17200000000000001,-58.26621522677369,1.809011709613009,-6.225383441795699,0.18365790450905342,0.412798562060917,0.9116660265505877,19.745161056518555,-5.6132731437683105,-2.7002313274238077e-08,10.399031471645046,23.93539898199683,26.362459481770376,0.9840098023414612,0.17125196754932404,-0.048240356147289276,0.008395501412451267
0.17250000000000001,-58.610461258276025,1.8348294043927091,-6.456210179030449,0.18396076672842743,0.4122654670213213,0.9117938008678111,19.737512588500977,-5.634077072143555,6.075546110650976e-08,10.416857233403878,23.903730784189676,26.340913790038684,0.9840123653411865,0.17118477821350098,-0.04841956868767738,0.008423362858593464
0.17300000000000001,-58.95399560211774,1.860210267571657,-6.688155826924524,0.18426607869251585,0.41173423609539606,0.9119359462492515,19.72959327697754,-5.65481424331665,6.02830994012038e-08,10.434675943615934,23.8718217677512,26.319170949239968,0.9840154647827148,0.17111524939537048,-0.04859821870923042,0.00845098216086626
0.17350000000000002,-59.29677315158641,1.8851129105444524,-6.921241655270742,0.18457376033744805,0.4112048940738413,0.9120925506325114,19.72140121459961,-5.675481796264648,-8.576259347137238e-08,10.452481415213134,23.839672947462564,26.29722946857803,0.9840189218521118,0.17104338109493256,-0.048776302486658096,0.008478356525301933
0.17400000000000002,-59.63874785406608,1.9094959611177371,-7.155488827689683,0.18488372110631054,0.41067746425351154,0.9122636951870746,19.71293830871582,-5.696081161499023,1.0793906568551392e-07,10.470266943695377,23.807285492410603,26.275087745375966,0.9840227961540222,0.1709691733121872,-0.048953816294670105,0.008505488745868206
0.17450000000000002,-59.97987272333271,1.933318105199511,-7.390918375567332,0.18519585984026035,0.41015196840568596,0.9124494541308451,19.704204559326172,-5.716611862182617,5.873296515801485e-08,10.488025304674796,23.774660727845085,26.25274406261963,0.9840270280838013,0.1708926409482956,-0.049130767583847046,0.008532374165952206
0.17500000000000002,-60.32009985306387,1.9565381292100301,-7.627551171744677,0.18551006468251677,0.4096284267464881,0.9126498945509451,19.695201873779297,-5.737074851989746,3.597502029606403e-08,10.505748752227046,23.741800136883676,26.230196586691125,0.9840316772460938,0.17081379890441895,-0.04930716007947922,0.00855901651084423
0.17550000000000002,-60.65938043155863,1.9791149631824774,-7.865407903993361,0.18582621299558377,0.4091068579094745,0.9128650762290609,19.685922622680664,-5.757468223571777,3.935565828783183e-08,10.523429018064787,23.708705362056186,26.207443365301994,0.9840366244316101,0.17073261737823486,-0.04948298633098602,0.008585412055253983
0.176,-60.99766475766583,2.0010077245193205,-8.104509048312261,0.18614417129204097,0.4085872789204316,0.9130950514715863,19.67638397216797,-5.777798175811768,3.812164806049623e-08,10.541057311547343,23.6753782066818,26.184482325637727,0.9840421676635742,0.17064915597438812,-0.04965827241539955,0.00861156452447176
0.1765,-61.334902257912546,2.0221757623681946,-8.344874842080474,0.18646379517922254,0.4080697051743852,0.9133398649448186,19.666568756103516,-5.798056602478027,-4.410957288314421e-08,10.558624320538708,23.6418206360716,26.16131127272391,0.9840478897094727,0.17056335508823395,-0.049832988530397415,0.00863746739923954
0.177,-61.67104150482802,2.0425787025789623,-8.58652525710261,0.18678492931808444,0.40755415041485415,0.9135995535154625,19.6564884185791,-5.818251132965088,3.308536733470646e-08,10.576120213124103,23.608034778550234,26.13792788802529,0.9840541481971741,0.17047527432441711,-0.050007164478302,0.008663126267492771
0.1775,-62.00603023645171,2.0621764932014206,-8.829479972583071,0.1871074073965424,0.40704062671534924,0.9138741460966926,19.64614486694336,-5.838378429412842,-7.157344938946153e-09,10.593534640193662,23.574022926289608,26.11432972828808,0.9840607643127441,0.17038491368293762,-0.050180789083242416,0.008688538335263729
0.178,-62.339815377016635,2.080929450481089,-9.073758348065963,0.18743105211754213,0.40652914446313326,0.9141636635000107,19.63553237915039,-5.858437538146973,-6.394887464011845e-08,10.610856738899825,23.53978753594896,26.090514224636628,0.9840676188468933,0.17029225826263428,-0.05035385861992836,0.008713701739907265
0.1785,-62.67234305879385,2.0987983053083705,-9.319379396378134,0.18775567520210296,0.40601971234524104,0.9144681182931402,19.624656677246094,-5.8784308433532715,-5.378584333470826e-08,10.628075136993234,23.505331229114937,26.066478681934765,0.9840750098228455,0.17019733786582947,-0.05052638426423073,0.008738618344068527
0.179,-63.00355864508571,2.1157442500742794,-9.566361756612563,0.18808107740755425,0.40551233733676467,0.914787514664177,19.61351776123047,-5.89835786819458,6.30947027957518e-08,10.645177958039866,23.470656792536815,26.04222027842268,0.9840827584266663,0.1701001524925232,-0.05069836229085922,0.008763287216424942
0.1795,-63.3334067543506,2.131728985883801,-9.814723667190027,0.18840704856116341,0.40500702469139416,0.9151218482922385,19.602113723754883,-5.918219566345215,1.3996695713558438e-07,10.662152827520167,23.435767178150755,26.01773606563901,0.9840909242630005,0.17000070214271545,-0.05086979269981384,0.008787705563008785
0.18,-63.66183128544284,2.1467147700759104,-10.064482939036356,0.18873336760932805,0.40450377793420983,0.9154711062248132,19.59044647216797,-5.938011169433594,-1.8934356305067013e-09,10.67898687980903,23.400665502889176,25.993022968638602,0.9840993285179138,0.16989900171756744,-0.05104066804051399,0.008811873383820057
0.1805,-63.98877544394767,2.160664463997201,-10.315656928913414,0.18905980268248637,0.4040025988567124,0.9158352667620171,19.57852554321289,-5.957738876342773,4.603397130154008e-08,10.695666766033524,23.365355048270594,25.968077786515664,0.9841082692146301,0.16979508101940155,-0.051210999488830566,0.008835792541503906
0.181,-64.31418176959176,2.1735415809741943,-10.56826251294113,0.18938611117587315,0.40350348751407306,0.9162142993479774,19.56633949279785,-5.977398872375488,4.91787126577492e-08,10.712178662803085,23.329839259765766,25.94289719324124,0.9841175079345703,0.16968892514705658,-0.05138077959418297,0.00885946024209261
0.1815,-64.63799216470538,2.185310334427462,-10.822316060348328,0.18971203984622495,0.40300644222458837,0.9166081644695164,19.55390167236328,-5.996992111206055,-8.343565127688635e-08,10.72850828180507,23.29412174593725,25.917477738824676,0.9841271638870239,0.1695805788040161,-0.051550012081861496,0.008882876485586166
0.182,-64.9601479237152,2.195935686068861,-11.077833407489736,0.19003732492451625,0.4025114595713127,0.9170168135623256,19.541200637817383,-6.01651668548584,-1.018328319446482e-07,10.744640880256698,23.25820627734923,25.891815850807358,0.9841370582580566,0.16946999728679657,-0.051718682050704956,0.008906040340662003
0.1825,-65.28058976363941,2.205383394121472,-11.334829832166106,0.19036169224477878,0.402018534405845,0.9174401889248142,19.528247833251953,-6.035975456237793,2.4016438615603874e-08,10.760561272202013,23.222096785245235,25.865907836096863,0.9841474294662476,0.16935724020004272,-0.05188680440187454,0.008928952738642693
0.183,-65.59925785556115,2.2136200615001065,-11.593320028284365,0.190684857389035,0.4015276598542355,0.9178782236397807,19.51504135131836,-6.055365562438965,2.7678407121811688e-08,10.77625384064114,23.185797359991987,25.839749883149334,0.9841582179069519,0.16924229264259338,-0.05205436423420906,0.008951609954237938
0.1835,-65.91609185705059,2.2206131838886876,-11.853318080894049,0.1910065258483481,0.40103882732498275,0.9183308415040824,19.501577377319336,-6.074686050415039,5.190646845676383e-08,10.791702550476613,23.149312249288077,25.81333806450687,0.9841692447662354,0.16912515461444855,-0.052221354097127914,0.00897401012480259
0.184,-66.23103094550694,2.226331197649251,-12.114837441635954,0.19132639319996494,0.40055202651908206,0.9187979569664347,19.487865447998047,-6.093939304351807,-4.582284773846368e-08,10.806890962260093,23.112645856136833,25.786668339696554,0.9841806888580322,0.169005885720253,-0.052387785166502,0.008996156975626945
0.1845,-66.5440138523894,2.230743527495959,-12.37789090463824,0.19164414530050614,0.40006724544208405,0.9192794750734814,19.473905563354492,-6.113123416900635,1.8086337982836653e-09,10.821802246720855,23.075802736583107,25.759736558496794,0.9841924905776978,0.16888447105884552,-0.05255364626646042,0.009018047712743282
0.185,-66.8549788983048,2.23382063386616,-12.64249058289475,0.19195945849512328,0.39958447041812367,0.9197752914242643,19.45969581604004,-6.132237434387207,-1.4802666647995011e-08,10.83641920005543,23.038787597214636,25.732538464575946,0.9842046499252319,0.16876092553138733,-0.052718933671712875,0.00903968047350645
0.1855,-67.16386402891918,2.23553405991935,-12.90864788515962,0.19227199984252671,0.39910368610586827,0.9202852921332008,19.44523811340332,-6.151280879974365,1.496059809369399e-08,10.850724259956541,23.001605292428863,25.70506969950747,0.9842171669006348,0.16863524913787842,-0.052883636206388474,0.009061054326593876
